#timestamp [ns],w_RS_S_x [rad s^-1],w_RS_S_y [rad s^-1],w_RS_S_z [rad s^-1],a_RS_S_x [m s^-2],a_RS_S_y [m s^-2],a_RS_S_z [m s^-2]
24157591000,3.490658503988659e-08,0.0,0.0,0.009576806640625,-0.1292868896484375,9.859322436523437
24158587000,0.0,0.0,-1.7453292519943295e-08,0.009576806640625,-0.1292868896484375,9.859322436523437
24159583000,0.0,0.0,-1.7453292519943295e-08,0.0,-0.1005564697265625,9.854534033203125
24160577000,1.7453292519943295e-08,0.0,-1.7453292519943295e-08,-0.009576806640625,-0.062249243164062495,9.86411083984375
24161573000,-1.7453292519943295e-08,1.7453292519943295e-08,0.0,-0.0047884033203125,-0.033518823242187495,9.878476049804688
24162569000,-3.490658503988659e-08,1.7453292519943295e-08,0.0,-0.0143652099609375,0.009576806640625,9.873687646484374
24163564000,-1.7453292519943295e-08,0.0,0.0,-0.023942016601562498,0.0,9.878476049804688
24164560000,-3.490658503988659e-08,0.0,1.7453292519943295e-08,-0.033518823242187495,-0.033518823242187495,9.878476049804688
24165556000,-5.235987755982989e-08,0.0,1.7453292519943295e-08,-0.0143652099609375,-0.1005564697265625,9.883264453125
24166549000,0.0,0.0,1.7453292519943295e-08,0.023942016601562498,-0.143652099609375,9.873687646484374
24167545000,1.7453292519943295e-08,0.0,1.7453292519943295e-08,0.0526724365234375,-0.1580173095703125,9.86411083984375
24168541000,3.490658503988659e-08,0.0,3.490658503988659e-08,0.05746083984375,-0.16759411621093748,9.854534033203125
24169537000,1.7453292519943295e-08,1.7453292519943295e-08,3.490658503988659e-08,0.0526724365234375,-0.1771709228515625,9.859322436523437
24170532000,0.0,0.0,5.235987755982989e-08,0.0526724365234375,-0.181959326171875,9.873687646484374
24171528000,1.7453292519943295e-08,0.0,3.490658503988659e-08,0.06703764648437499,-0.1867477294921875,9.883264453125
24172522000,1.7453292519943295e-08,0.0,1.7453292519943295e-08,0.062249243164062495,-0.19153613281249998,9.892841259765625
24173517000,1.7453292519943295e-08,0.0,1.7453292519943295e-08,0.047884033203124995,-0.19632453613281248,9.883264453125
24174513000,-1.7453292519943295e-08,-1.7453292519943295e-08,0.0,0.047884033203124995,-0.19632453613281248,9.868899243164062
24175509000,-1.7453292519943295e-08,0.0,1.7453292519943295e-08,0.05746083984375,-0.16280571289062498,9.849745629882811
24176504000,1.7453292519943295e-08,0.0,0.0,0.05746083984375,-0.11013327636718749,9.835380419921874
24177500000,3.490658503988659e-08,0.0,0.0,0.0383072265625,-0.047884033203124995,9.82580361328125
24178495000,1.7453292519943295e-08,0.0,0.0,0.023942016601562498,-0.033518823242187495,9.82580361328125
24179490000,-1.7453292519943295e-08,0.0,-1.7453292519943295e-08,0.023942016601562498,-0.023942016601562498,9.82580361328125
24180486000,-3.490658503988659e-08,-1.7453292519943295e-08,-3.490658503988659e-08,0.028730419921875,-0.0143652099609375,9.840168823242188
24181482000,-1.7453292519943295e-08,0.0,-3.490658503988659e-08,0.01915361328125,-0.0143652099609375,9.86411083984375
24182480000,0.0,0.0,-1.7453292519943295e-08,0.0047884033203125,-0.009576806640625,9.892841259765625
24183473000,0.0,0.0,-1.7453292519943295e-08,0.009576806640625,0.0,9.897629663085937
24184469000,0.0,0.0,0.0,0.028730419921875,0.0047884033203125,9.897629663085937
24185463000,-1.7453292519943295e-08,-1.7453292519943295e-08,0.0,0.01915361328125,0.0047884033203125,9.873687646484374
24186459000,-3.490658503988659e-08,0.0,0.0,0.0047884033203125,-0.01915361328125,9.86411083984375
24187455000,-1.7453292519943295e-08,1.7453292519943295e-08,1.7453292519943295e-08,0.009576806640625,-0.0430956298828125,9.8449572265625
24188451000,-1.7453292519943295e-08,1.7453292519943295e-08,0.0,0.0383072265625,-0.1005564697265625,9.840168823242188
24189446000,-1.7453292519943295e-08,1.7453292519943295e-08,0.0,0.06703764648437499,-0.19632453613281248,9.854534033203125
24190442000,-1.7453292519943295e-08,0.0,0.0,0.062249243164062495,-0.27293898925781246,9.888052856445311
24191436000,1.7453292519943295e-08,-1.7453292519943295e-08,0.0,0.0526724365234375,-0.27293898925781246,9.926360083007811
24192432000,3.490658503988659e-08,-1.7453292519943295e-08,0.0,0.0430956298828125,-0.2346317626953125,9.911994873046874
24193427000,5.235987755982989e-08,0.0,-1.7453292519943295e-08,0.0430956298828125,-0.2346317626953125,9.911994873046874
24194423000,1.7453292519943295e-08,1.7453292519943295e-08,0.0,0.01915361328125,-0.2059013427734375,9.888052856445311
24195419000,-1.7453292519943295e-08,1.7453292519943295e-08,0.0,0.0047884033203125,-0.16280571289062498,9.878476049804688
24196415000,-1.7453292519943295e-08,1.7453292519943295e-08,-1.7453292519943295e-08,0.0,-0.12449848632812499,9.873687646484374
24197408000,1.7453292519943295e-08,-1.7453292519943295e-08,-3.490658503988659e-08,0.009576806640625,-0.1149216796875,9.854534033203125
24198404000,-1.7453292519943295e-08,-3.490658503988659e-08,-1.7453292519943295e-08,0.009576806640625,-0.1005564697265625,9.868899243164062
24199400000,0.0,-1.7453292519943295e-08,-3.490658503988659e-08,0.023942016601562498,-0.143652099609375,9.8449572265625
24200396000,0.0,0.0,-1.7453292519943295e-08,0.0383072265625,-0.1197100830078125,9.82580361328125
24201391000,3.490658503988659e-08,1.7453292519943295e-08,-1.7453292519943295e-08,0.0909796630859375,-0.1149216796875,9.801861596679688
24202387000,0.0,0.0,1.7453292519943295e-08,0.06703764648437499,-0.028730419921875,9.816226806640625
24203380000,0.0,0.0,0.0,0.028730419921875,-0.0526724365234375,9.835380419921874
24204376000,0.0,0.0,1.7453292519943295e-08,0.01915361328125,-0.023942016601562498,9.854534033203125
24205371000,-1.7453292519943295e-08,0.0,-1.7453292519943295e-08,0.01915361328125,0.0,9.873687646484374
24206367000,0.0,0.0,-3.490658503988659e-08,0.028730419921875,-0.01915361328125,9.883264453125
24207363000,-3.490658503988659e-08,0.0,-1.7453292519943295e-08,0.009576806640625,-0.033518823242187495,9.916783276367187
24208359000,-1.7453292519943295e-08,-1.7453292519943295e-08,-3.490658503988659e-08,0.0047884033203125,-0.0718260498046875,9.931148486328125
24209354000,-5.235987755982989e-08,-1.7453292519943295e-08,0.0,0.028730419921875,-0.086191259765625,9.911994873046874
24210348000,1.7453292519943295e-08,-1.7453292519943295e-08,-1.7453292519943295e-08,0.05746083984375,-0.0909796630859375,9.9215716796875
24211344000,3.490658503988659e-08,0.0,0.0,0.1149216796875,-0.08140285644531249,9.911994873046874
24212340000,0.0,1.7453292519943295e-08,1.7453292519943295e-08,0.1388636962890625,-0.09576806640624999,9.907206469726562
24213335000,1.7453292519943295e-08,1.7453292519943295e-08,1.7453292519943295e-08,0.1580173095703125,-0.1388636962890625,9.931148486328125
24214331000,0.0,1.7453292519943295e-08,3.490658503988659e-08,0.1580173095703125,-0.16280571289062498,9.931148486328125
24215327000,3.490658503988659e-08,1.7453292519943295e-08,0.0,0.15322890625,-0.19153613281249998,9.935936889648437
24216320000,0.0,-1.7453292519943295e-08,1.7453292519943295e-08,0.12449848632812499,-0.2346317626953125,9.9215716796875
24217316000,1.7453292519943295e-08,-1.7453292519943295e-08,0.0,0.076614453125,-0.24899697265624998,9.888052856445311
24218312000,1.7453292519943295e-08,-1.7453292519943295e-08,0.0,0.033518823242187495,-0.24899697265624998,9.883264453125
24219308000,1.7453292519943295e-08,0.0,-1.7453292519943295e-08,0.0047884033203125,-0.21068974609375,9.8449572265625
24220303000,0.0,1.7453292519943295e-08,0.0,-0.0047884033203125,-0.201112939453125,9.816226806640625
24221299000,0.0,1.7453292519943295e-08,1.7453292519943295e-08,-0.01915361328125,-0.21068974609375,9.811438403320311
24222292000,-1.7453292519943295e-08,0.0,1.7453292519943295e-08,-0.05746083984375,-0.239420166015625,9.801861596679688
24223288000,1.7453292519943295e-08,0.0,3.490658503988659e-08,-0.05746083984375,-0.239420166015625,9.801861596679688
24224284000,3.490658503988659e-08,-1.7453292519943295e-08,3.490658503988659e-08,-0.0718260498046875,-0.2442085693359375,9.787496386718749
24225279000,-1.7453292519943295e-08,-1.7453292519943295e-08,0.0,-0.08140285644531249,-0.277727392578125,9.787496386718749
24226275000,0.0,0.0,1.7453292519943295e-08,-0.086191259765625,-0.296881005859375,9.734823950195311
24227271000,-1.7453292519943295e-08,0.0,1.7453292519943295e-08,-0.062249243164062495,-0.3016694091796875,9.720458740234374
24228264000,-3.490658503988659e-08,1.7453292519943295e-08,0.0,-0.06703764648437499,-0.2825157958984375,9.696516723632811
24229260000,-1.7453292519943295e-08,0.0,0.0,-0.0909796630859375,-0.33518823242187495,9.715670336914062
24230255000,-1.7453292519943295e-08,1.7453292519943295e-08,0.0,-0.08140285644531249,-0.3495534423828125,9.758765966796874
24231251000,0.0,1.7453292519943295e-08,0.0,-0.047884033203124995,-0.33039982910156246,9.739612353515625
24232247000,0.0,0.0,3.490658503988659e-08,0.0047884033203125,-0.32082302246093747,9.725247143554688
24233243000,0.0,0.0,5.235987755982989e-08,0.033518823242187495,-0.277727392578125,9.715670336914062
24234239000,1.7453292519943295e-08,0.0,3.490658503988659e-08,0.0526724365234375,-0.22505495605468748,9.734823950195311
24235231000,0.0,0.0,3.490658503988659e-08,0.09576806640624999,-0.2346317626953125,9.777919580078125
24236227000,1.7453292519943295e-08,0.0,0.0,0.076614453125,-0.33039982910156246,9.80665
24237222000,0.0,-1.7453292519943295e-08,1.7453292519943295e-08,0.086191259765625,-0.39743747558593745,9.835380419921874
24238218000,1.7453292519943295e-08,0.0,0.0,0.076614453125,-0.469263525390625,9.816226806640625
24239215000,1.7453292519943295e-08,0.0,-3.490658503988659e-08,0.0718260498046875,-0.45968671875,9.816226806640625
24240210000,0.0,0.0,-5.235987755982989e-08,0.076614453125,-0.411802685546875,9.801861596679688
24241203000,1.7453292519943295e-08,0.0,-5.235987755982989e-08,0.05746083984375,-0.373495458984375,9.787496386718749
24242199000,0.0,0.0,-5.235987755982989e-08,0.0383072265625,-0.3064578125,9.792284790039062
24243195000,-1.7453292519943295e-08,1.7453292519943295e-08,-5.235987755982989e-08,0.023942016601562498,-0.3016694091796875,9.777919580078125
24244191000,1.7453292519943295e-08,1.7453292519943295e-08,-5.235987755982989e-08,-0.0047884033203125,-0.22505495605468748,9.787496386718749
24245186000,0.0,0.0,-3.490658503988659e-08,-0.0047884033203125,-0.1388636962890625,9.782707983398437
24246182000,-1.7453292519943295e-08,-1.7453292519943295e-08,-3.490658503988659e-08,0.023942016601562498,-0.0909796630859375,9.739612353515625
24247176000,-3.490658503988659e-08,1.7453292519943295e-08,-1.7453292519943295e-08,0.06703764648437499,-0.105344873046875,9.734823950195311
24248172000,-3.490658503988659e-08,0.0,-1.7453292519943295e-08,0.0909796630859375,-0.1580173095703125,9.715670336914062
24249168000,-1.7453292519943295e-08,-1.7453292519943295e-08,-5.235987755982989e-08,0.086191259765625,-0.239420166015625,9.701305126953125
24250163000,-1.7453292519943295e-08,-1.7453292519943295e-08,-3.490658503988659e-08,0.06703764648437499,-0.2920926025390625,9.720458740234374
24251159000,0.0,0.0,-3.490658503988659e-08,0.05746083984375,-0.32082302246093747,9.730035546875
24252155000,1.7453292519943295e-08,0.0,-5.235987755982989e-08,0.0718260498046875,-0.36391865234375,9.744400756835937
24253149000,1.7453292519943295e-08,0.0,-5.235987755982989e-08,0.086191259765625,-0.38307226562499996,9.763554370117188
24254144000,0.0,0.0,-5.235987755982989e-08,0.086191259765625,-0.38307226562499996,9.763554370117188
24255140000,1.7453292519943295e-08,0.0,-3.490658503988659e-08,0.1005564697265625,-0.4165910888671875,9.777919580078125
24256136000,1.7453292519943295e-08,0.0,-1.7453292519943295e-08,0.13407529296874998,-0.430956298828125,9.792284790039062
24257131000,1.7453292519943295e-08,0.0,1.7453292519943295e-08,0.15322890625,-0.39264907226562495,9.777919580078125
24258127000,1.7453292519943295e-08,0.0,1.7453292519943295e-08,0.1771709228515625,-0.3495534423828125,9.753977563476562
24259123000,0.0,0.0,3.490658503988659e-08,0.17238251953125,-0.26815058593749996,9.720458740234374
24260116000,-1.7453292519943295e-08,0.0,1.7453292519943295e-08,0.15322890625,-0.2059013427734375,9.682151513671874
24261112000,-1.7453292519943295e-08,1.7453292519943295e-08,3.490658503988659e-08,0.13407529296874998,-0.11013327636718749,9.677363110351562
24262108000,0.0,1.7453292519943295e-08,1.7453292519943295e-08,0.13407529296874998,-0.06703764648437499,9.6917283203125
24263104000,-1.7453292519943295e-08,0.0,1.7453292519943295e-08,0.1388636962890625,-0.0143652099609375,9.710881933593749
24264099000,-1.7453292519943295e-08,0.0,1.7453292519943295e-08,0.1484405029296875,0.01915361328125,9.734823950195311
24265095000,0.0,0.0,0.0,0.1388636962890625,0.0718260498046875,9.773131176757811
24266089000,0.0,0.0,0.0,0.1484405029296875,0.1197100830078125,9.82580361328125
24267085000,1.7453292519943295e-08,-1.7453292519943295e-08,1.7453292519943295e-08,0.1580173095703125,0.16759411621093748,9.859322436523437
24268080000,0.0,0.0,3.490658503988659e-08,0.1771709228515625,0.16759411621093748,9.907206469726562
24269076000,1.7453292519943295e-08,-1.7453292519943295e-08,3.490658503988659e-08,0.1867477294921875,0.143652099609375,9.935936889648437
24270072000,0.0,0.0,3.490658503988659e-08,0.2059013427734375,0.1197100830078125,9.964667309570311
24271067000,0.0,0.0,3.490658503988659e-08,0.22026655273437498,0.06703764648437499,9.993397729492187
24272062000,0.0,1.7453292519943295e-08,3.490658503988659e-08,0.19153613281249998,0.033518823242187495,9.9981861328125
24273057000,0.0,0.0,3.490658503988659e-08,0.11013327636718749,-0.01915361328125,9.993397729492187
24274053000,0.0,0.0,3.490658503988659e-08,0.0430956298828125,-0.0526724365234375,10.002974536132811
24275049000,-1.7453292519943295e-08,0.0,3.490658503988659e-08,-0.0047884033203125,-0.09576806640624999,9.97903251953125
24276044000,-1.7453292519943295e-08,0.0,3.490658503988659e-08,-0.023942016601562498,-0.1580173095703125,9.94072529296875
24277040000,-1.7453292519943295e-08,0.0,1.7453292519943295e-08,-0.033518823242187495,-0.17238251953125,9.883264453125
24278034000,-1.7453292519943295e-08,0.0,0.0,-0.01915361328125,-0.16759411621093748,9.849745629882811
24279030000,0.0,0.0,0.0,-0.0143652099609375,-0.1484405029296875,9.840168823242188
24280026000,1.7453292519943295e-08,0.0,0.0,0.0143652099609375,-0.105344873046875,9.868899243164062
24281021000,1.7453292519943295e-08,0.0,0.0,0.05746083984375,-0.028730419921875,9.926360083007811
24282017000,1.7453292519943295e-08,0.0,0.0,0.05746083984375,-0.028730419921875,9.926360083007811
24283013000,1.7453292519943295e-08,0.0,1.7453292519943295e-08,0.0909796630859375,0.0526724365234375,9.97903251953125
24284008000,0.0,0.0,1.7453292519943295e-08,0.1292868896484375,0.105344873046875,10.046070166015625
24285003000,1.7453292519943295e-08,0.0,1.7453292519943295e-08,0.1580173095703125,0.13407529296874998,10.079588989257813
24285998000,0.0,0.0,3.490658503988659e-08,0.15322890625,0.12449848632812499,10.089165795898436
24286994000,0.0,0.0,3.490658503988659e-08,0.12449848632812499,0.1292868896484375,10.070012182617187
24287989000,-1.7453292519943295e-08,0.0,3.490658503988659e-08,0.09576806640624999,0.1292868896484375,10.022128149414062
24288985000,-1.7453292519943295e-08,0.0,1.7453292519943295e-08,0.062249243164062495,0.0909796630859375,9.955090502929687
24289981000,-1.7453292519943295e-08,0.0,1.7453292519943295e-08,0.023942016601562498,0.0383072265625,9.90241806640625
24290974000,0.0,0.0,0.0,0.0047884033203125,-0.009576806640625,9.873687646484374
24291970000,0.0,0.0,0.0,-0.01915361328125,-0.028730419921875,9.888052856445311
24292966000,-1.7453292519943295e-08,0.0,-1.7453292519943295e-08,-0.0383072265625,-0.0526724365234375,9.911994873046874
24293961000,0.0,0.0,-1.7453292519943295e-08,-0.05746083984375,-0.0909796630859375,9.969455712890625
24294957000,0.0,0.0,-1.7453292519943295e-08,-0.0718260498046875,-0.11013327636718749,10.01733974609375
24295953000,0.0,0.0,-1.7453292519943295e-08,-0.0718260498046875,-0.105344873046875,10.05564697265625
24296947000,0.0,0.0,0.0,-0.062249243164062495,-0.0909796630859375,10.060435375976562
24297942000,1.7453292519943295e-08,0.0,0.0,-0.023942016601562498,-0.0909796630859375,10.050858569335936
24298938000,1.7453292519943295e-08,0.0,1.7453292519943295e-08,0.01915361328125,-0.076614453125,10.01733974609375
24299934000,0.0,0.0,1.7453292519943295e-08,0.047884033203124995,-0.076614453125,9.974244116210937
24300931000,0.0,0.0,1.7453292519943295e-08,0.0718260498046875,-0.062249243164062495,9.94072529296875
24301925000,0.0,0.0,0.0,0.1005564697265625,-0.047884033203124995,9.873687646484374
24302920000,0.0,0.0,0.0,0.15322890625,-0.0526724365234375,9.777919580078125
24303916000,0.0,0.0,0.0,0.1867477294921875,-0.06703764648437499,9.686939916992188
24304911000,0.0,-1.7453292519943295e-08,0.0,0.22026655273437498,-0.0718260498046875,9.619902270507811
24305907000,-1.7453292519943295e-08,0.0,0.0,0.2442085693359375,-0.105344873046875,9.591171850585937
24306903000,-1.7453292519943295e-08,0.0,0.0,0.24899697265624998,-0.1149216796875,9.567229833984374
24307898000,-1.7453292519943295e-08,0.0,0.0,0.2442085693359375,-0.16280571289062498,9.567229833984374
24308894000,-1.7453292519943295e-08,1.7453292519943295e-08,0.0,0.229843359375,-0.19632453613281248,9.586383447265625
24309889000,0.0,0.0,0.0,0.19632453613281248,-0.201112939453125,9.610325463867188
24310884000,1.7453292519943295e-08,1.7453292519943295e-08,0.0,0.1771709228515625,-0.21068974609375,9.624690673828125
24311880000,0.0,0.0,0.0,0.1771709228515625,-0.181959326171875,9.629479077148437
24312876000,1.7453292519943295e-08,0.0,0.0,0.1771709228515625,-0.181959326171875,9.629479077148437
24313871000,1.7453292519943295e-08,0.0,0.0,0.17238251953125,-0.1292868896484375,9.643844287109374
24314867000,-1.7453292519943295e-08,0.0,0.0,0.1484405029296875,-0.086191259765625,9.662997900390625
24315860000,0.0,0.0,0.0,0.12449848632812499,-0.086191259765625,9.677363110351562
24316856000,0.0,0.0,0.0,0.1149216796875,-0.0383072265625,9.6917283203125
24317852000,0.0,0.0,0.0,0.1149216796875,-0.033518823242187495,9.696516723632811
24318848000,0.0,0.0,0.0,0.0909796630859375,-0.062249243164062495,9.720458740234374
24319843000,0.0,-1.7453292519943295e-08,0.0,0.06703764648437499,-0.0718260498046875,9.763554370117188
24320839000,0.0,0.0,0.0,0.047884033203124995,-0.1005564697265625,9.787496386718749
24321833000,0.0,0.0,1.7453292519943295e-08,0.028730419921875,-0.11013327636718749,9.777919580078125
24322828000,0.0,0.0,0.0,0.0047884033203125,-0.1292868896484375,9.758765966796874
24323825000,-1.7453292519943295e-08,0.0,1.7453292519943295e-08,-0.0143652099609375,-0.17238251953125,9.753977563476562
24324819000,0.0,0.0,0.0,0.0047884033203125,-0.181959326171875,9.725247143554688
24325815000,0.0,1.7453292519943295e-08,1.7453292519943295e-08,0.047884033203124995,-0.15322890625,9.672574707031249
24326811000,0.0,1.7453292519943295e-08,0.0,0.06703764648437499,-0.1867477294921875,9.6151138671875
24327804000,0.0,0.0,0.0,0.076614453125,-0.181959326171875,9.600748657226562
24328800000,0.0,0.0,0.0,0.1005564697265625,-0.17238251953125,9.6151138671875
24329796000,0.0,1.7453292519943295e-08,0.0,0.0909796630859375,-0.1580173095703125,9.629479077148437
24330792000,0.0,0.0,0.0,0.1005564697265625,-0.105344873046875,9.658209497070311
24331787000,0.0,0.0,0.0,0.09576806640624999,-0.076614453125,9.720458740234374
24332783000,0.0,0.0,0.0,0.0718260498046875,-0.028730419921875,9.811438403320311
24333779000,0.0,0.0,0.0,0.05746083984375,-0.009576806640625,9.878476049804688
24334773000,0.0,0.0,0.0,0.0430956298828125,0.009576806640625,9.897629663085937
24335768000,1.7453292519943295e-08,-1.7453292519943295e-08,0.0,0.0430956298828125,0.01915361328125,9.878476049804688
24336764000,0.0,-1.7453292519943295e-08,0.0,0.06703764648437499,0.023942016601562498,9.859322436523437
24337760000,1.7453292519943295e-08,0.0,0.0,0.09576806640624999,-0.0143652099609375,9.840168823242188
24338755000,-1.7453292519943295e-08,0.0,0.0,0.08140285644531249,-0.076614453125,9.82580361328125
24339751000,0.0,1.7453292519943295e-08,0.0,0.06703764648437499,-0.1292868896484375,9.873687646484374
24340744000,0.0,0.0,0.0,0.0430956298828125,-0.17238251953125,9.897629663085937
24341740000,0.0,0.0,0.0,0.028730419921875,-0.1580173095703125,9.897629663085937
24342736000,0.0,0.0,0.0,0.01915361328125,-0.19632453613281248,9.892841259765625
24343731000,-1.7453292519943295e-08,1.7453292519943295e-08,1.7453292519943295e-08,0.01915361328125,-0.19632453613281248,9.892841259765625
24344727000,0.0,1.7453292519943295e-08,0.0,-0.0143652099609375,-0.24899697265624998,9.911994873046874
24345723000,0.0,0.0,0.0,-0.0383072265625,-0.27293898925781246,9.931148486328125
24346716000,-1.7453292519943295e-08,0.0,0.0,-0.0526724365234375,-0.28730419921875,9.94072529296875
24347712000,0.0,0.0,0.0,-0.047884033203124995,-0.3112462158203125,9.931148486328125
24348707000,1.7453292519943295e-08,0.0,0.0,-0.0526724365234375,-0.277727392578125,9.911994873046874
24349703000,0.0,0.0,0.0,-0.047884033203124995,-0.24899697265624998,9.916783276367187
24350699000,1.7453292519943295e-08,0.0,0.0,-0.047884033203124995,-0.229843359375,9.911994873046874
24351695000,0.0,0.0,0.0,-0.047884033203124995,-0.1867477294921875,9.935936889648437
24352688000,0.0,0.0,0.0,-0.0526724365234375,-0.1771709228515625,9.969455712890625
24353684000,1.7453292519943295e-08,0.0,0.0,-0.047884033203124995,-0.16280571289062498,9.988609326171874
24354681000,0.0,0.0,0.0,-0.033518823242187495,-0.13407529296874998,9.97903251953125
24355675000,-1.7453292519943295e-08,0.0,0.0,-0.0143652099609375,-0.09576806640624999,9.935936889648437
24356671000,0.0,-1.7453292519943295e-08,0.0,0.0047884033203125,-0.0909796630859375,9.90241806640625
24357667000,0.0,0.0,0.0,0.023942016601562498,-0.0909796630859375,9.897629663085937
24358662000,0.0,0.0,0.0,0.0047884033203125,-0.0909796630859375,9.907206469726562
24359657000,0.0,0.0,1.7453292519943295e-08,0.0,-0.0909796630859375,9.931148486328125
24360652000,0.0,1.7453292519943295e-08,1.7453292519943295e-08,-0.01915361328125,-0.1005564697265625,9.94072529296875
24361648000,-1.7453292519943295e-08,1.7453292519943295e-08,0.0,-0.047884033203124995,-0.13407529296874998,9.935936889648437
24362644000,0.0,1.7453292519943295e-08,0.0,-0.0383072265625,-0.1484405029296875,9.931148486328125
24363639000,0.0,0.0,0.0,-0.009576806640625,-0.1292868896484375,9.888052856445311
24364635000,-1.7453292519943295e-08,0.0,0.0,0.0383072265625,-0.1197100830078125,9.840168823242188
24365629000,1.7453292519943295e-08,0.0,0.0,0.086191259765625,-0.09576806640624999,9.80665
24366625000,0.0,0.0,0.0,0.086191259765625,-0.09576806640624999,9.80665
24367621000,0.0,0.0,0.0,0.13407529296874998,-0.0909796630859375,9.801861596679688
24368616000,1.7453292519943295e-08,0.0,0.0,0.16759411621093748,-0.0909796630859375,9.801861596679688
24369612000,-1.7453292519943295e-08,0.0,0.0,0.2059013427734375,-0.076614453125,9.830592016601562
24370608000,1.7453292519943295e-08,0.0,0.0,0.22505495605468748,-0.06703764648437499,9.8449572265625
24371602000,0.0,-1.7453292519943295e-08,0.0,0.229843359375,-0.0526724365234375,9.873687646484374
24372598000,0.0,0.0,0.0,0.229843359375,-0.028730419921875,9.892841259765625
24373596000,0.0,0.0,0.0,0.22026655273437498,-0.0383072265625,9.892841259765625
24374589000,0.0,0.0,0.0,0.2154781494140625,-0.023942016601562498,9.907206469726562
24375585000,0.0,0.0,0.0,0.22026655273437498,-0.023942016601562498,9.911994873046874
24376580000,0.0,0.0,0.0,0.2059013427734375,-0.047884033203124995,9.897629663085937
24377575000,-1.7453292519943295e-08,0.0,0.0,0.1867477294921875,-0.0718260498046875,9.86411083984375
24378570000,0.0,0.0,0.0,0.16280571289062498,-0.08140285644531249,9.859322436523437
24379566000,0.0,0.0,0.0,0.1388636962890625,-0.12449848632812499,9.86411083984375
24380562000,0.0,0.0,0.0,0.12449848632812499,-0.1292868896484375,9.854534033203125
24381558000,0.0,0.0,0.0,0.11013327636718749,-0.143652099609375,9.840168823242188
24382556000,0.0,0.0,0.0,0.1005564697265625,-0.16280571289062498,9.82580361328125
24383549000,0.0,1.7453292519943295e-08,0.0,0.1005564697265625,-0.1580173095703125,9.797073193359374
24384543000,0.0,0.0,0.0,0.09576806640624999,-0.1388636962890625,9.7683427734375
24385538000,-1.7453292519943295e-08,0.0,0.0,0.1197100830078125,-0.1149216796875,9.744400756835937
24386534000,1.7453292519943295e-08,0.0,0.0,0.13407529296874998,-0.1005564697265625,9.677363110351562
24387530000,0.0,0.0,0.0,0.1484405029296875,-0.0909796630859375,9.629479077148437
24388526000,0.0,0.0,0.0,0.15322890625,-0.086191259765625,9.643844287109374
24389523000,0.0,0.0,0.0,0.1388636962890625,-0.09576806640624999,9.672574707031249
24390516000,0.0,0.0,0.0,0.09576806640624999,-0.11013327636718749,9.730035546875
24391514000,1.7453292519943295e-08,0.0,0.0,0.0526724365234375,-0.11013327636718749,9.8449572265625
24392507000,-1.7453292519943295e-08,0.0,0.0,-0.009576806640625,-0.1149216796875,9.916783276367187
24393503000,0.0,0.0,0.0,-0.05746083984375,-0.12449848632812499,9.955090502929687
24394499000,0.0,0.0,0.0,-0.086191259765625,-0.1292868896484375,9.983820922851562
24395494000,-1.7453292519943295e-08,0.0,0.0,-0.1005564697265625,-0.13407529296874998,9.97903251953125
24396488000,-1.7453292519943295e-08,0.0,0.0,-0.1005564697265625,-0.13407529296874998,9.97903251953125
24397484000,0.0,0.0,1.7453292519943295e-08,-0.1197100830078125,-0.1292868896484375,9.95987890625
24398480000,0.0,0.0,0.0,-0.11013327636718749,-0.1149216796875,9.94072529296875
24399476000,0.0,0.0,0.0,-0.105344873046875,-0.1197100830078125,9.897629663085937
24400471000,0.0,0.0,0.0,-0.086191259765625,-0.12449848632812499,9.878476049804688
24401467000,0.0,0.0,0.0,-0.062249243164062495,-0.11013327636718749,9.883264453125
24402460000,1.7453292519943295e-08,0.0,0.0,-0.0526724365234375,-0.1005564697265625,9.86411083984375
24403457000,0.0,0.0,0.0,-0.028730419921875,-0.086191259765625,9.8449572265625
24404453000,0.0,0.0,0.0,0.0047884033203125,-0.08140285644531249,9.816226806640625
24405447000,0.0,0.0,0.0,0.023942016601562498,-0.11013327636718749,9.80665
24406443000,0.0,0.0,0.0,0.0143652099609375,-0.13407529296874998,9.82580361328125
24407439000,0.0,0.0,0.0,-0.0143652099609375,-0.1388636962890625,9.859322436523437
24408434000,0.0,0.0,0.0,-0.033518823242187495,-0.1580173095703125,9.878476049804688
24409429000,1.7453292519943295e-08,0.0,0.0,-0.0430956298828125,-0.15322890625,9.907206469726562
24410423000,0.0,0.0,0.0,-0.047884033203124995,-0.143652099609375,9.94072529296875
24411419000,0.0,0.0,0.0,-0.062249243164062495,-0.1484405029296875,9.969455712890625
24412415000,0.0,0.0,0.0,-0.086191259765625,-0.1484405029296875,9.9981861328125
24413412000,1.7453292519943295e-08,-1.7453292519943295e-08,0.0,-0.105344873046875,-0.15322890625,10.01733974609375
24414406000,-1.7453292519943295e-08,0.0,1.7453292519943295e-08,-0.12449848632812499,-0.16280571289062498,10.046070166015625
24415400000,1.7453292519943295e-08,0.0,0.0,-0.12449848632812499,-0.201112939453125,10.0748005859375
24416396000,-1.7453292519943295e-08,0.0,0.0,-0.12449848632812499,-0.2059013427734375,10.060435375976562
24417392000,0.0,1.7453292519943295e-08,0.0,-0.143652099609375,-0.19153613281249998,10.05564697265625
24418387000,0.0,0.0,0.0,-0.143652099609375,-0.17238251953125,10.012551342773437
24419383000,0.0,1.7453292519943295e-08,1.7453292519943295e-08,-0.143652099609375,-0.17238251953125,10.012551342773437
24420379000,0.0,0.0,0.0,-0.1484405029296875,-0.1484405029296875,9.974244116210937
24421373000,-1.7453292519943295e-08,-1.7453292519943295e-08,0.0,-0.1388636962890625,-0.1388636962890625,9.955090502929687
24422371000,1.7453292519943295e-08,0.0,0.0,-0.143652099609375,-0.12449848632812499,9.911994873046874
24423365000,-1.7453292519943295e-08,0.0,0.0,-0.105344873046875,-0.08140285644531249,9.878476049804688
24424361000,0.0,0.0,0.0,-0.076614453125,-0.0718260498046875,9.821015209960937
24425356000,0.0,0.0,-1.7453292519943295e-08,-0.05746083984375,-0.028730419921875,9.792284790039062
24426352000,-1.7453292519943295e-08,0.0,0.0,-0.01915361328125,0.009576806640625,9.787496386718749
24427348000,0.0,0.0,0.0,0.009576806640625,0.0047884033203125,9.753977563476562
24428343000,0.0,0.0,0.0,0.023942016601562498,0.01915361328125,9.753977563476562
24429339000,0.0,0.0,0.0,0.062249243164062495,0.0526724365234375,9.739612353515625
24430335000,0.0,0.0,0.0,0.08140285644531249,0.033518823242187495,9.706093530273437
24431333000,0.0,0.0,0.0,0.105344873046875,0.047884033203124995,9.677363110351562
24432326000,0.0,0.0,0.0,0.105344873046875,0.033518823242187495,9.672574707031249
24433322000,1.7453292519943295e-08,0.0,0.0,0.0718260498046875,0.0,9.701305126953125
24434317000,0.0,0.0,0.0,0.062249243164062495,-0.023942016601562498,9.749189160156249
24435313000,0.0,0.0,0.0,0.062249243164062495,-0.033518823242187495,9.739612353515625
24436309000,0.0,0.0,0.0,0.0526724365234375,-0.0526724365234375,9.701305126953125
24437304000,0.0,0.0,0.0,0.062249243164062495,-0.08140285644531249,9.672574707031249
24438300000,-1.7453292519943295e-08,0.0,1.7453292519943295e-08,0.08140285644531249,-0.0909796630859375,9.648632690429688
24439296000,1.7453292519943295e-08,0.0,0.0,0.0909796630859375,-0.1197100830078125,9.643844287109374
24440290000,0.0,0.0,0.0,0.086191259765625,-0.143652099609375,9.658209497070311
24441286000,-1.7453292519943295e-08,0.0,0.0,0.08140285644531249,-0.1484405029296875,9.677363110351562
24442282000,1.7453292519943295e-08,0.0,0.0,0.086191259765625,-0.1484405029296875,9.682151513671874
24443277000,1.7453292519943295e-08,0.0,0.0,0.09576806640624999,-0.1197100830078125,9.701305126953125
24444273000,0.0,0.0,0.0,0.105344873046875,-0.08140285644531249,9.734823950195311
24445269000,0.0,0.0,0.0,0.1005564697265625,-0.0526724365234375,9.744400756835937
24446264000,1.7453292519943295e-08,0.0,0.0,0.08140285644531249,-0.047884033203124995,9.753977563476562
24447260000,-1.7453292519943295e-08,0.0,0.0,0.05746083984375,-0.0526724365234375,9.7683427734375
24448255000,1.7453292519943295e-08,0.0,0.0,0.0526724365234375,-0.0526724365234375,9.797073193359374
24449251000,-1.7453292519943295e-08,0.0,0.0,0.0430956298828125,-0.0383072265625,9.801861596679688
24450247000,-1.7453292519943295e-08,0.0,0.0,0.033518823242187495,-0.0143652099609375,9.82580361328125
24451242000,1.7453292519943295e-08,0.0,0.0,0.033518823242187495,-0.0143652099609375,9.82580361328125
24452237000,-1.7453292519943295e-08,-1.7453292519943295e-08,0.0,0.033518823242187495,-0.01915361328125,9.859322436523437
24453233000,1.7453292519943295e-08,0.0,0.0,0.0047884033203125,-0.0430956298828125,9.8449572265625
24454228000,0.0,0.0,0.0,0.009576806640625,-0.0430956298828125,9.8449572265625
24455224000,0.0,0.0,0.0,0.01915361328125,-0.0526724365234375,9.821015209960937
24456220000,1.7453292519943295e-08,0.0,0.0,0.01915361328125,-0.0718260498046875,9.792284790039062
24457215000,-1.7453292519943295e-08,0.0,1.7453292519943295e-08,0.0383072265625,-0.047884033203124995,9.782707983398437
24458211000,1.7453292519943295e-08,1.7453292519943295e-08,0.0,0.0526724365234375,-0.047884033203124995,9.734823950195311
24459205000,0.0,0.0,0.0,0.062249243164062495,-0.06703764648437499,9.720458740234374
24460201000,0.0,0.0,0.0,0.06703764648437499,-0.05746083984375,9.715670336914062
24461196000,0.0,0.0,0.0,0.06703764648437499,-0.06703764648437499,9.696516723632811
24462192000,-1.7453292519943295e-08,0.0,0.0,0.0718260498046875,-0.0909796630859375,9.6917283203125
24463188000,0.0,0.0,0.0,0.08140285644531249,-0.08140285644531249,9.686939916992188
24464183000,0.0,0.0,0.0,0.086191259765625,-0.0909796630859375,9.682151513671874
24465177000,-1.7453292519943295e-08,0.0,0.0,0.0909796630859375,-0.076614453125,9.710881933593749
24466173000,0.0,0.0,0.0,0.08140285644531249,-0.08140285644531249,9.715670336914062
24467169000,0.0,0.0,0.0,0.05746083984375,-0.08140285644531249,9.730035546875
24468164000,0.0,1.7453292519943295e-08,0.0,0.05746083984375,-0.0526724365234375,9.734823950195311
24469160000,0.0,0.0,0.0,0.0430956298828125,-0.0383072265625,9.744400756835937
24470156000,0.0,0.0,0.0,0.01915361328125,-0.0383072265625,9.739612353515625
24471150000,0.0,0.0,1.7453292519943295e-08,-0.028730419921875,-0.0526724365234375,9.773131176757811
24472145000,-1.7453292519943295e-08,0.0,0.0,-0.05746083984375,-0.033518823242187495,9.792284790039062
24473141000,0.0,0.0,1.7453292519943295e-08,-0.076614453125,-0.01915361328125,9.782707983398437
24474137000,0.0,0.0,1.7453292519943295e-08,-0.08140285644531249,-0.0430956298828125,9.777919580078125
24475132000,0.0,1.7453292519943295e-08,1.7453292519943295e-08,-0.08140285644531249,-0.0430956298828125,9.792284790039062
24476128000,0.0,0.0,0.0,-0.0718260498046875,-0.0430956298828125,9.763554370117188
24477123000,1.7453292519943295e-08,0.0,1.7453292519943295e-08,-0.033518823242187495,-0.028730419921875,9.720458740234374
24478118000,0.0,0.0,0.0,0.009576806640625,-0.009576806640625,9.667786303710937
24479114000,0.0,0.0,0.0,0.009576806640625,-0.009576806640625,9.667786303710937
24480110000,0.0,0.0,0.0,0.023942016601562498,-0.01915361328125,9.610325463867188
24481105000,-1.7453292519943295e-08,1.7453292519943295e-08,0.0,0.0143652099609375,-0.05746083984375,9.629479077148437
24482101000,0.0,0.0,0.0,0.023942016601562498,-0.05746083984375,9.662997900390625
24483097000,0.0,0.0,0.0,0.05746083984375,-0.0718260498046875,9.672574707031249
24484091000,0.0,0.0,0.0,0.0526724365234375,-0.076614453125,9.686939916992188
24485087000,0.0,0.0,0.0,0.047884033203124995,-0.0718260498046875,9.720458740234374
24486083000,0.0,0.0,0.0,0.047884033203124995,-0.06703764648437499,9.734823950195311
24487078000,0.0,0.0,0.0,0.047884033203124995,-0.0430956298828125,9.715670336914062
24488074000,-1.7453292519943295e-08,0.0,0.0,0.06703764648437499,-0.01915361328125,9.696516723632811
24489070000,1.7453292519943295e-08,0.0,0.0,0.09576806640624999,-0.0047884033203125,9.65342109375
24490064000,-1.7453292519943295e-08,0.0,0.0,0.11013327636718749,0.0143652099609375,9.624690673828125
24491059000,0.0,0.0,1.7453292519943295e-08,0.1292868896484375,0.0143652099609375,9.619902270507811
24492055000,0.0,0.0,0.0,0.12449848632812499,0.009576806640625,9.6151138671875
24493053000,0.0,0.0,0.0,0.1388636962890625,0.0143652099609375,9.610325463867188
24494046000,0.0,0.0,0.0,0.143652099609375,0.009576806640625,9.624690673828125
24495042000,0.0,0.0,0.0,0.13407529296874998,-0.0143652099609375,9.629479077148437
24496036000,0.0,0.0,0.0,0.12449848632812499,-0.033518823242187495,9.643844287109374
24497031000,1.7453292519943295e-08,0.0,0.0,0.1197100830078125,-0.033518823242187495,9.648632690429688
24498027000,0.0,0.0,0.0,0.12449848632812499,-0.047884033203124995,9.639055883789062
24499023000,1.7453292519943295e-08,0.0,0.0,0.1197100830078125,-0.062249243164062495,9.643844287109374
24500020000,0.0,0.0,0.0,0.09576806640624999,-0.0718260498046875,9.65342109375
24501014000,0.0,0.0,0.0,0.0909796630859375,-0.1005564697265625,9.677363110351562
24502008000,0.0,0.0,0.0,0.086191259765625,-0.12449848632812499,9.730035546875
24503005000,-1.7453292519943295e-08,0.0,0.0,0.05746083984375,-0.1484405029296875,9.773131176757811
24504000000,0.0,1.7453292519943295e-08,0.0,0.023942016601562498,-0.1484405029296875,9.840168823242188
24504995000,0.0,0.0,0.0,-0.009576806640625,-0.1388636962890625,9.868899243164062
24505991000,-1.7453292519943295e-08,0.0,0.0,-0.028730419921875,-0.1292868896484375,9.883264453125
24506987000,0.0,0.0,0.0,-0.023942016601562498,-0.11013327636718749,9.873687646484374
24507983000,0.0,-1.7453292519943295e-08,0.0,0.0047884033203125,-0.105344873046875,9.82580361328125
24508975000,0.0,0.0,0.0,0.0047884033203125,-0.105344873046875,9.82580361328125
24509972000,1.7453292519943295e-08,0.0,1.7453292519943295e-08,0.0430956298828125,-0.05746083984375,9.782707983398437
24510967000,-1.7453292519943295e-08,0.0,1.7453292519943295e-08,0.086191259765625,-0.01915361328125,9.706093530273437
24511963000,1.7453292519943295e-08,0.0,0.0,0.13407529296874998,0.0047884033203125,9.610325463867188
24512958000,0.0,0.0,1.7453292519943295e-08,0.19153613281249998,0.0383072265625,9.557653027343749
24513954000,0.0,0.0,1.7453292519943295e-08,0.24899697265624998,0.047884033203124995,9.524134204101562
24514947000,0.0,0.0,0.0,0.26336218261718747,0.0143652099609375,9.504980590820312
24515943000,-1.7453292519943295e-08,0.0,1.7453292519943295e-08,0.277727392578125,0.033518823242187495,9.519345800781249
24516941000,1.7453292519943295e-08,0.0,0.0,0.26336218261718747,0.01915361328125,9.533711010742186
24517934000,0.0,-1.7453292519943295e-08,0.0,0.2537853759765625,0.0047884033203125,9.581595043945311
24518930000,0.0,0.0,0.0,0.2346317626953125,0.0047884033203125,9.658209497070311
24519926000,0.0,0.0,0.0,0.19153613281249998,-0.009576806640625,9.696516723632811
24520919000,0.0,0.0,0.0,0.15322890625,-0.0143652099609375,9.739612353515625
24521915000,1.7453292519943295e-08,0.0,0.0,0.105344873046875,-0.0383072265625,9.777919580078125
24522910000,-1.7453292519943295e-08,0.0,0.0,0.0383072265625,-0.086191259765625,9.821015209960937
24523906000,0.0,1.7453292519943295e-08,-1.7453292519943295e-08,-0.0047884033203125,-0.09576806640624999,9.873687646484374
24524902000,0.0,0.0,0.0,-0.023942016601562498,-0.1005564697265625,9.868899243164062
24525897000,-1.7453292519943295e-08,0.0,0.0,-0.0430956298828125,-0.076614453125,9.840168823242188
24526890000,0.0,0.0,-1.7453292519943295e-08,-0.0430956298828125,-0.076614453125,9.840168823242188
24527886000,0.0,-1.7453292519943295e-08,0.0,-0.0383072265625,-0.047884033203124995,9.8449572265625
24528883000,1.7453292519943295e-08,0.0,0.0,-0.01915361328125,-0.023942016601562498,9.792284790039062
24529878000,0.0,0.0,1.7453292519943295e-08,0.009576806640625,0.01915361328125,9.730035546875
24530873000,0.0,1.7453292519943295e-08,1.7453292519943295e-08,0.047884033203124995,0.0430956298828125,9.658209497070311
24531869000,0.0,1.7453292519943295e-08,0.0,0.0909796630859375,0.0383072265625,9.581595043945311
24532865000,0.0,0.0,0.0,0.12449848632812499,0.05746083984375,9.528922607421874
24533858000,0.0,0.0,0.0,0.16280571289062498,0.0526724365234375,9.495403784179686
24534854000,0.0,0.0,0.0,0.2154781494140625,0.0430956298828125,9.476250170898437
24535850000,-1.7453292519943295e-08,0.0,0.0,0.22505495605468748,0.0383072265625,9.466673364257812
24536845000,0.0,0.0,0.0,0.22505495605468748,-0.009576806640625,9.476250170898437
24537841000,1.7453292519943295e-08,0.0,0.0,0.201112939453125,-0.0143652099609375,9.495403784179686
24538837000,0.0,0.0,0.0,0.1771709228515625,-0.05746083984375,9.548076220703125
24539830000,0.0,0.0,0.0,0.143652099609375,-0.076614453125,9.600748657226562
24540826000,0.0,0.0,0.0,0.09576806640624999,-0.0909796630859375,9.65342109375
24541822000,0.0,1.7453292519943295e-08,0.0,0.047884033203124995,-0.12449848632812499,9.706093530273437
24542817000,0.0,0.0,0.0,0.0047884033203125,-0.1388636962890625,9.730035546875
24543813000,-1.7453292519943295e-08,0.0,0.0,-0.01915361328125,-0.1484405029296875,9.749189160156249
24544809000,-1.7453292519943295e-08,0.0,0.0,-0.0383072265625,-0.181959326171875,9.763554370117188
24545804000,0.0,0.0,0.0,-0.0430956298828125,-0.2059013427734375,9.763554370117188
24546801000,-1.7453292519943295e-08,0.0,0.0,-0.023942016601562498,-0.21068974609375,9.758765966796874
24547798000,0.0,0.0,0.0,-0.0526724365234375,-0.21068974609375,9.739612353515625
24548791000,0.0,0.0,0.0,-0.0526724365234375,-0.19153613281249998,9.725247143554688
24549787000,0.0,0.0,1.7453292519943295e-08,-0.033518823242187495,-0.16280571289062498,9.720458740234374
24550783000,1.7453292519943295e-08,0.0,0.0,-0.05746083984375,-0.1580173095703125,9.696516723632811
24551778000,0.0,0.0,1.7453292519943295e-08,-0.0718260498046875,-0.1580173095703125,9.710881933593749
24552774000,1.7453292519943295e-08,0.0,0.0,-0.062249243164062495,-0.13407529296874998,9.730035546875
24553770000,0.0,0.0,1.7453292519943295e-08,-0.06703764648437499,-0.1197100830078125,9.715670336914062
24554766000,0.0,0.0,1.7453292519943295e-08,-0.06703764648437499,-0.1197100830078125,9.715670336914062
24555761000,0.0,0.0,0.0,-0.06703764648437499,-0.1197100830078125,9.725247143554688
24556759000,-1.7453292519943295e-08,0.0,0.0,-0.06703764648437499,-0.0909796630859375,9.749189160156249
24557753000,0.0,0.0,0.0,-0.0718260498046875,-0.0909796630859375,9.758765966796874
24558748000,-1.7453292519943295e-08,0.0,0.0,-0.08140285644531249,-0.09576806640624999,9.792284790039062
24559744000,1.7453292519943295e-08,1.7453292519943295e-08,0.0,-0.09576806640624999,-0.12449848632812499,9.797073193359374
24560740000,0.0,0.0,0.0,-0.1005564697265625,-0.1484405029296875,9.801861596679688
24561735000,0.0,0.0,0.0,-0.1005564697265625,-0.15322890625,9.797073193359374
24562731000,0.0,0.0,0.0,-0.086191259765625,-0.16280571289062498,9.792284790039062
24563728000,-1.7453292519943295e-08,0.0,0.0,-0.076614453125,-0.16759411621093748,9.777919580078125
24564721000,0.0,0.0,0.0,-0.086191259765625,-0.19632453613281248,9.753977563476562
24565717000,-1.7453292519943295e-08,0.0,0.0,-0.0718260498046875,-0.21068974609375,9.734823950195311
24566713000,0.0,0.0,0.0,-0.0718260498046875,-0.2059013427734375,9.730035546875
24567708000,0.0,0.0,0.0,-0.0718260498046875,-0.2154781494140625,9.701305126953125
24568704000,-1.7453292519943295e-08,0.0,0.0,-0.05746083984375,-0.16759411621093748,9.706093530273437
24569701000,1.7453292519943295e-08,0.0,0.0,-0.009576806640625,-0.1197100830078125,9.658209497070311
24570694000,0.0,-1.7453292519943295e-08,0.0,0.0143652099609375,-0.09576806640624999,9.595960253906249
24571690000,1.7453292519943295e-08,0.0,0.0,0.0526724365234375,-0.05746083984375,9.581595043945311
24572686000,1.7453292519943295e-08,0.0,0.0,0.08140285644531249,-0.0143652099609375,9.562441430664062
24573681000,0.0,0.0,0.0,0.11013327636718749,0.0143652099609375,9.562441430664062
24574677000,1.7453292519943295e-08,0.0,0.0,0.12449848632812499,0.033518823242187495,9.605537060546874
24575673000,0.0,0.0,0.0,0.1005564697265625,0.023942016601562498,9.624690673828125
24576667000,0.0,1.7453292519943295e-08,0.0,0.08140285644531249,0.0430956298828125,9.648632690429688
24577663000,1.7453292519943295e-08,0.0,0.0,0.0718260498046875,0.033518823242187495,9.65342109375
24578659000,-1.7453292519943295e-08,0.0,0.0,0.0430956298828125,-0.0143652099609375,9.667786303710937
24579656000,0.0,1.7453292519943295e-08,0.0,0.033518823242187495,-0.047884033203124995,9.720458740234374
24580650000,-1.7453292519943295e-08,0.0,0.0,0.023942016601562498,-0.062249243164062495,9.753977563476562
24581646000,0.0,0.0,-1.7453292519943295e-08,0.0047884033203125,-0.062249243164062495,9.763554370117188
24582641000,-1.7453292519943295e-08,0.0,-1.7453292519943295e-08,0.009576806640625,-0.0718260498046875,9.749189160156249
24583636000,0.0,0.0,0.0,0.009576806640625,-0.0718260498046875,9.749189160156249
24584632000,0.0,0.0,0.0,0.009576806640625,-0.076614453125,9.730035546875
24585628000,-1.7453292519943295e-08,0.0,0.0,0.01915361328125,-0.0909796630859375,9.730035546875
24586623000,1.7453292519943295e-08,0.0,0.0,0.033518823242187495,-0.08140285644531249,9.6917283203125
24587619000,0.0,0.0,1.7453292519943295e-08,0.05746083984375,-0.0526724365234375,9.667786303710937
24588615000,0.0,0.0,0.0,0.086191259765625,-0.023942016601562498,9.619902270507811
24589610000,1.7453292519943295e-08,0.0,0.0,0.1005564697265625,-0.0143652099609375,9.576806640625
24590605000,0.0,0.0,0.0,0.11013327636718749,-0.009576806640625,9.562441430664062
24591601000,1.7453292519943295e-08,0.0,0.0,0.12449848632812499,-0.023942016601562498,9.581595043945311
24592597000,1.7453292519943295e-08,-1.7453292519943295e-08,1.7453292519943295e-08,0.1005564697265625,-0.023942016601562498,9.600748657226562
24593593000,-1.7453292519943295e-08,-1.7453292519943295e-08,0.0,0.0909796630859375,-0.023942016601562498,9.634267480468749
24594588000,0.0,0.0,0.0,0.062249243164062495,-0.0143652099609375,9.629479077148437
24595582000,0.0,0.0,0.0,0.05746083984375,-0.0143652099609375,9.600748657226562
24596578000,0.0,0.0,0.0,0.0430956298828125,-0.0047884033203125,9.600748657226562
24597574000,0.0,0.0,0.0,0.0383072265625,0.0047884033203125,9.610325463867188
24598570000,-1.7453292519943295e-08,0.0,0.0,0.033518823242187495,0.0047884033203125,9.619902270507811
24599565000,0.0,1.7453292519943295e-08,0.0,0.023942016601562498,0.0,9.639055883789062
24600561000,0.0,0.0,0.0,0.009576806640625,-0.01915361328125,9.667786303710937
24601554000,-1.7453292519943295e-08,1.7453292519943295e-08,0.0,-0.0047884033203125,-0.05746083984375,9.696516723632811
24602550000,0.0,0.0,0.0,-0.01915361328125,-0.086191259765625,9.730035546875
24603546000,-1.7453292519943295e-08,0.0,0.0,-0.033518823242187495,-0.1149216796875,9.744400756835937
24604541000,0.0,0.0,0.0,-0.0383072265625,-0.1388636962890625,9.7683427734375
24605537000,0.0,0.0,0.0,-0.0909796630859375,-0.143652099609375,9.801861596679688
24606533000,0.0,1.7453292519943295e-08,0.0,-0.12449848632812499,-0.11013327636718749,9.859322436523437
24607528000,1.7453292519943295e-08,0.0,0.0,-0.15322890625,-0.076614453125,9.868899243164062
24608523000,0.0,-1.7453292519943295e-08,0.0,-0.13407529296874998,-0.0383072265625,9.811438403320311
24609518000,1.7453292519943295e-08,0.0,0.0,-0.086191259765625,0.0,9.753977563476562
24610515000,1.7453292519943295e-08,-1.7453292519943295e-08,0.0,-0.01915361328125,0.0430956298828125,9.6917283203125
24611510000,0.0,-1.7453292519943295e-08,0.0,-0.01915361328125,0.0430956298828125,9.6917283203125
24612505000,1.7453292519943295e-08,-1.7453292519943295e-08,0.0,0.062249243164062495,0.11013327636718749,9.591171850585937
24613501000,0.0,0.0,1.7453292519943295e-08,0.13407529296874998,0.143652099609375,9.519345800781249
24614495000,0.0,1.7453292519943295e-08,0.0,0.16280571289062498,0.13407529296874998,9.509768994140625
24615491000,0.0,0.0,0.0,0.16759411621093748,0.11013327636718749,9.562441430664062
24616487000,0.0,0.0,0.0,0.1484405029296875,0.062249243164062495,9.643844287109374
24617482000,0.0,0.0,0.0,0.11013327636718749,0.009576806640625,9.706093530273437
24618478000,-1.7453292519943295e-08,0.0,0.0,0.062249243164062495,-0.06703764648437499,9.7683427734375
24619474000,0.0,1.7453292519943295e-08,0.0,0.0047884033203125,-0.143652099609375,9.797073193359374
24620468000,-1.7453292519943295e-08,0.0,0.0,-0.0383072265625,-0.181959326171875,9.840168823242188
24621463000,0.0,0.0,-1.7453292519943295e-08,-0.09576806640624999,-0.24899697265624998,9.892841259765625
24622459000,0.0,0.0,0.0,-0.1388636962890625,-0.2825157958984375,9.964667309570311
24623455000,0.0,0.0,0.0,-0.17238251953125,-0.296881005859375,10.022128149414062
24624450000,1.7453292519943295e-08,0.0,0.0,-0.2059013427734375,-0.316034619140625,10.046070166015625
24625446000,0.0,0.0,0.0,-0.239420166015625,-0.3112462158203125,10.041281762695311
24626440000,0.0,0.0,0.0,-0.2537853759765625,-0.2920926025390625,10.041281762695311
24627436000,1.7453292519943295e-08,-1.7453292519943295e-08,0.0,-0.27293898925781246,-0.2825157958984375,10.007762939453125
24628431000,0.0,0.0,0.0,-0.2537853759765625,-0.24899697265624998,10.012551342773437
24629427000,0.0,0.0,0.0,-0.22026655273437498,-0.181959326171875,9.97903251953125
24630423000,0.0,-1.7453292519943295e-08,1.7453292519943295e-08,-0.19153613281249998,-0.1771709228515625,9.916783276367187
24631419000,1.7453292519943295e-08,-1.7453292519943295e-08,1.7453292519943295e-08,-0.16280571289062498,-0.15322890625,9.883264453125
24632414000,0.0,0.0,1.7453292519943295e-08,-0.16280571289062498,-0.15322890625,9.883264453125
24633408000,0.0,0.0,1.7453292519943295e-08,-0.09576806640624999,-0.1388636962890625,9.840168823242188
24634403000,0.0,0.0,1.7453292519943295e-08,-0.047884033203124995,-0.16280571289062498,9.773131176757811
24635399000,-1.7453292519943295e-08,1.7453292519943295e-08,0.0,-0.009576806640625,-0.15322890625,9.739612353515625
24636395000,0.0,1.7453292519943295e-08,0.0,0.023942016601562498,-0.1580173095703125,9.706093530273437
24637391000,-1.7453292519943295e-08,0.0,0.0,0.0430956298828125,-0.19153613281249998,9.696516723632811
24638386000,0.0,0.0,0.0,0.047884033203124995,-0.22026655273437498,9.696516723632811
24639379000,0.0,0.0,0.0,0.0383072265625,-0.24899697265624998,9.715670336914062
24640376000,-1.7453292519943295e-08,0.0,0.0,0.0383072265625,-0.277727392578125,9.744400756835937
24641371000,0.0,1.7453292519943295e-08,0.0,0.0383072265625,-0.2825157958984375,9.753977563476562
24642370000,0.0,0.0,0.0,0.028730419921875,-0.2920926025390625,9.763554370117188
24643362000,-1.7453292519943295e-08,0.0,0.0,0.01915361328125,-0.3016694091796875,9.787496386718749
24644358000,0.0,0.0,0.0,0.0143652099609375,-0.2825157958984375,9.80665
24645351000,-1.7453292519943295e-08,0.0,0.0,0.009576806640625,-0.26815058593749996,9.80665
24646347000,0.0,1.7453292519943295e-08,0.0,0.0,-0.24899697265624998,9.777919580078125
24647342000,0.0,0.0,0.0,0.028730419921875,-0.2346317626953125,9.744400756835937
24648338000,0.0,-1.7453292519943295e-08,0.0,0.06703764648437499,-0.19632453613281248,9.720458740234374
24649334000,1.7453292519943295e-08,0.0,0.0,0.09576806640624999,-0.1771709228515625,9.686939916992188
24650330000,0.0,-1.7453292519943295e-08,0.0,0.1197100830078125,-0.1292868896484375,9.6151138671875
24651323000,0.0,0.0,0.0,0.16280571289062498,-0.09576806640624999,9.576806640625
24652319000,1.7453292519943295e-08,0.0,0.0,0.16280571289062498,-0.09576806640624999,9.562441430664062
24653314000,-1.7453292519943295e-08,0.0,0.0,0.1771709228515625,-0.0718260498046875,9.557653027343749
24654310000,0.0,1.7453292519943295e-08,0.0,0.19153613281249998,-0.0526724365234375,9.557653027343749
24655306000,0.0,0.0,0.0,0.201112939453125,-0.033518823242187495,9.543287817382812
24656302000,0.0,0.0,0.0,0.19632453613281248,-0.028730419921875,9.524134204101562
24657297000,0.0,0.0,0.0,0.2059013427734375,-0.0383072265625,9.533711010742186
24658290000,-1.7453292519943295e-08,0.0,0.0,0.21068974609375,-0.0526724365234375,9.562441430664062
24659286000,-1.7453292519943295e-08,1.7453292519943295e-08,0.0,0.2154781494140625,-0.09576806640624999,9.595960253906249
24660281000,0.0,0.0,0.0,0.2154781494140625,-0.09576806640624999,9.595960253906249
24661277000,-1.7453292519943295e-08,0.0,0.0,0.2154781494140625,-0.105344873046875,9.624690673828125
24662273000,0.0,0.0,0.0,0.181959326171875,-0.1580173095703125,9.648632690429688
24663269000,-1.7453292519943295e-08,0.0,0.0,0.16759411621093748,-0.1867477294921875,9.701305126953125
24664262000,1.7453292519943295e-08,0.0,0.0,0.1292868896484375,-0.22026655273437498,9.739612353515625
24665258000,0.0,0.0,0.0,0.0909796630859375,-0.24899697265624998,9.792284790039062
24666254000,0.0,0.0,0.0,0.05746083984375,-0.27293898925781246,9.82580361328125
24667249000,1.7453292519943295e-08,-1.7453292519943295e-08,0.0,0.0143652099609375,-0.26815058593749996,9.859322436523437
24668245000,0.0,0.0,0.0,-0.01915361328125,-0.2537853759765625,9.873687646484374
24669241000,1.7453292519943295e-08,1.7453292519943295e-08,1.7453292519943295e-08,-0.028730419921875,-0.21068974609375,9.830592016601562
24670235000,1.7453292519943295e-08,0.0,1.7453292519943295e-08,0.0,-0.15322890625,9.753977563476562
24671231000,0.0,0.0,1.7453292519943295e-08,0.01915361328125,-0.1292868896484375,9.730035546875
24672227000,1.7453292519943295e-08,0.0,1.7453292519943295e-08,0.0526724365234375,-0.105344873046875,9.701305126953125
24673225000,-1.7453292519943295e-08,0.0,1.7453292519943295e-08,0.1197100830078125,-0.05746083984375,9.634267480468749
24674218000,0.0,1.7453292519943295e-08,0.0,0.1771709228515625,-0.023942016601562498,9.562441430664062
24675214000,0.0,0.0,0.0,0.229843359375,-0.009576806640625,9.466673364257812
24676207000,-1.7453292519943295e-08,0.0,0.0,0.28730419921875,0.0143652099609375,9.394847314453125
24677203000,0.0,0.0,0.0,0.3112462158203125,-0.0143652099609375,9.356540087890625
24678199000,-1.7453292519943295e-08,0.0,0.0,0.3495534423828125,-0.0383072265625,9.356540087890625
24679194000,0.0,0.0,0.0,0.3399766357421875,-0.0718260498046875,9.361328491210937
24680190000,0.0,1.7453292519943295e-08,0.0,0.32082302246093747,-0.11013327636718749,9.414000927734374
24681186000,0.0,0.0,0.0,0.28730419921875,-0.1197100830078125,9.447519750976562
24682184000,0.0,0.0,0.0,0.2346317626953125,-0.143652099609375,9.481038574218749
24683175000,0.0,0.0,0.0,0.1867477294921875,-0.15322890625,9.524134204101562
24684171000,1.7453292519943295e-08,0.0,0.0,0.1484405029296875,-0.1580173095703125,9.562441430664062
24685166000,0.0,0.0,0.0,0.1005564697265625,-0.1867477294921875,9.586383447265625
24686162000,0.0,0.0,0.0,0.0526724365234375,-0.2059013427734375,9.65342109375
24687158000,0.0,0.0,0.0,-0.0047884033203125,-0.1771709228515625,9.720458740234374
24688154000,0.0,0.0,0.0,-0.047884033203124995,-0.17238251953125,9.763554370117188
24689147000,0.0,0.0,0.0,-0.05746083984375,-0.12449848632812499,9.753977563476562
24690143000,0.0,-1.7453292519943295e-08,0.0,-0.0430956298828125,-0.1005564697265625,9.715670336914062
24691139000,1.7453292519943295e-08,0.0,0.0,-0.009576806640625,-0.0909796630859375,9.706093530273437
24692134000,0.0,0.0,1.7453292519943295e-08,0.01915361328125,-0.08140285644531249,9.6917283203125
24693130000,0.0,0.0,0.0,0.047884033203124995,-0.06703764648437499,9.667786303710937
24694126000,0.0,1.7453292519943295e-08,0.0,0.047884033203124995,-0.06703764648437499,9.667786303710937
24695121000,0.0,0.0,0.0,0.062249243164062495,-0.062249243164062495,9.682151513671874
24696115000,0.0,0.0,0.0,0.0909796630859375,-0.0526724365234375,9.667786303710937
24697110000,0.0,0.0,0.0,0.1005564697265625,-0.0526724365234375,9.658209497070311
24698106000,-1.7453292519943295e-08,0.0,0.0,0.0909796630859375,-0.08140285644531249,9.65342109375
24699105000,0.0,0.0,-1.7453292519943295e-08,0.09576806640624999,-0.1005564697265625,9.639055883789062
24700097000,-1.7453292519943295e-08,0.0,0.0,0.105344873046875,-0.06703764648437499,9.639055883789062
24701093000,1.7453292519943295e-08,0.0,0.0,0.11013327636718749,-0.0718260498046875,9.643844287109374
24702087000,0.0,0.0,0.0,0.11013327636718749,-0.033518823242187495,9.6151138671875
24703083000,-1.7453292519943295e-08,0.0,0.0,0.1149216796875,0.0,9.586383447265625
24704080000,1.7453292519943295e-08,0.0,0.0,0.12449848632812499,0.0383072265625,9.586383447265625
24705074000,-1.7453292519943295e-08,-1.7453292519943295e-08,0.0,0.11013327636718749,0.062249243164062495,9.595960253906249
24706070000,0.0,0.0,0.0,0.09576806640624999,0.05746083984375,9.639055883789062
24707065000,0.0,0.0,0.0,0.06703764648437499,0.05746083984375,9.667786303710937
24708059000,-1.7453292519943295e-08,0.0,0.0,0.05746083984375,0.06703764648437499,9.672574707031249
24709055000,1.7453292519943295e-08,0.0,1.7453292519943295e-08,0.0526724365234375,0.0430956298828125,9.662997900390625
24710051000,0.0,0.0,1.7453292519943295e-08,0.033518823242187495,0.033518823242187495,9.677363110351562
24711046000,0.0,0.0,0.0,0.0430956298828125,0.0430956298828125,9.6917283203125
24712042000,1.7453292519943295e-08,0.0,0.0,0.0383072265625,0.01915361328125,9.706093530273437
24713039000,0.0,0.0,0.0,0.028730419921875,0.009576806640625,9.720458740234374
24714031000,0.0,0.0,0.0,0.023942016601562498,-0.0143652099609375,9.739612353515625
24715027000,0.0,0.0,0.0,0.01915361328125,-0.0383072265625,9.744400756835937
24716024000,-1.7453292519943295e-08,0.0,0.0,0.01915361328125,-0.0383072265625,9.744400756835937
24717020000,0.0,0.0,0.0,-0.01915361328125,-0.08140285644531249,9.7683427734375
24718014000,0.0,0.0,0.0,-0.047884033203124995,-0.1197100830078125,9.801861596679688
24719010000,0.0,0.0,0.0,-0.076614453125,-0.1197100830078125,9.835380419921874
24720005000,0.0,0.0,0.0,-0.08140285644531249,-0.1292868896484375,9.854534033203125
24721000000,0.0,0.0,0.0,-0.0909796630859375,-0.13407529296874998,9.86411083984375
24721995000,0.0,0.0,0.0,-0.1005564697265625,-0.1197100830078125,9.854534033203125
24722991000,0.0,0.0,0.0,-0.1005564697265625,-0.1005564697265625,9.840168823242188
24723987000,0.0,0.0,0.0,-0.1005564697265625,-0.05746083984375,9.80665
24724983000,0.0,0.0,0.0,-0.08140285644531249,-0.023942016601562498,9.777919580078125
24725978000,0.0,0.0,0.0,-0.0718260498046875,0.0047884033203125,9.773131176757811
24726972000,0.0,0.0,1.7453292519943295e-08,-0.05746083984375,0.0430956298828125,9.763554370117188
24727968000,0.0,0.0,0.0,-0.023942016601562498,0.062249243164062495,9.734823950195311
24728963000,0.0,0.0,0.0,0.0047884033203125,0.06703764648437499,9.6917283203125
24729959000,0.0,0.0,0.0,0.028730419921875,0.062249243164062495,9.634267480468749
24730956000,0.0,0.0,0.0,0.0718260498046875,0.06703764648437499,9.586383447265625
24731951000,1.7453292519943295e-08,0.0,0.0,0.12449848632812499,0.06703764648437499,9.514557397460937
24732943000,-1.7453292519943295e-08,0.0,0.0,0.15322890625,0.0718260498046875,9.466673364257812
24733940000,0.0,0.0,0.0,0.1867477294921875,0.06703764648437499,9.442731347656249
24734935000,1.7453292519943295e-08,0.0,0.0,0.2154781494140625,0.06703764648437499,9.404424121093749
24735930000,0.0,0.0,0.0,0.2346317626953125,0.062249243164062495,9.3852705078125
24736926000,0.0,0.0,0.0,0.2442085693359375,0.062249243164062495,9.380482104492186
24737922000,-1.7453292519943295e-08,0.0,0.0,0.26336218261718747,0.05746083984375,9.3852705078125
24738914000,1.7453292519943295e-08,1.7453292519943295e-08,0.0,0.26815058593749996,0.033518823242187495,9.433154541015625
24739910000,-1.7453292519943295e-08,0.0,0.0,0.229843359375,-0.009576806640625,9.471461767578125
24740906000,0.0,0.0,0.0,0.201112939453125,-0.05746083984375,9.524134204101562
24741903000,0.0,0.0,0.0,0.16759411621093748,-0.062249243164062495,9.562441430664062
24742897000,-1.7453292519943295e-08,0.0,-1.7453292519943295e-08,0.16759411621093748,-0.062249243164062495,9.562441430664062
24743893000,1.7453292519943295e-08,0.0,-1.7453292519943295e-08,0.1149216796875,-0.08140285644531249,9.600748657226562
24744886000,-1.7453292519943295e-08,-1.7453292519943295e-08,0.0,0.0909796630859375,-0.086191259765625,9.629479077148437
24745882000,1.7453292519943295e-08,0.0,0.0,0.0526724365234375,-0.08140285644531249,9.634267480468749
24746878000,1.7453292519943295e-08,0.0,0.0,0.023942016601562498,-0.11013327636718749,9.658209497070311
24747873000,0.0,0.0,0.0,-0.009576806640625,-0.1388636962890625,9.706093530273437
24748869000,1.7453292519943295e-08,0.0,0.0,-0.06703764648437499,-0.16280571289062498,9.749189160156249
24749865000,0.0,-1.7453292519943295e-08,0.0,-0.1005564697265625,-0.143652099609375,9.787496386718749
24750859000,0.0,1.7453292519943295e-08,0.0,-0.1005564697265625,-0.1388636962890625,9.763554370117188
24751856000,0.0,0.0,0.0,-0.0909796630859375,-0.1197100830078125,9.701305126953125
24752850000,-1.7453292519943295e-08,0.0,0.0,-0.06703764648437499,-0.1197100830078125,9.677363110351562
24753846000,0.0,1.7453292519943295e-08,0.0,-0.0383072265625,-0.1484405029296875,9.658209497070311
24754842000,-1.7453292519943295e-08,0.0,0.0,-0.028730419921875,-0.143652099609375,9.672574707031249
24755837000,0.0,1.7453292519943295e-08,0.0,-0.0143652099609375,-0.1771709228515625,9.706093530273437
24756833000,0.0,1.7453292519943295e-08,0.0,-0.0047884033203125,-0.1867477294921875,9.744400756835937
24757826000,-1.7453292519943295e-08,0.0,0.0,0.0,-0.16280571289062498,9.763554370117188
24758822000,1.7453292519943295e-08,0.0,0.0,0.009576806640625,-0.1580173095703125,9.763554370117188
24759818000,0.0,0.0,0.0,0.033518823242187495,-0.1197100830078125,9.749189160156249
24760814000,1.7453292519943295e-08,0.0,0.0,0.0526724365234375,-0.0909796630859375,9.753977563476562
24761809000,0.0,-1.7453292519943295e-08,0.0,0.0718260498046875,-0.1005564697265625,9.725247143554688
24762805000,-1.7453292519943295e-08,0.0,0.0,0.0718260498046875,-0.08140285644531249,9.710881933593749
24763798000,0.0,1.7453292519943295e-08,0.0,0.076614453125,-0.076614453125,9.739612353515625
24764794000,-1.7453292519943295e-08,0.0,0.0,0.0718260498046875,-0.062249243164062495,9.763554370117188
24765790000,0.0,0.0,0.0,0.09576806640624999,-0.0383072265625,9.753977563476562
24766785000,0.0,0.0,0.0,0.09576806640624999,-0.06703764648437499,9.730035546875
24767781000,0.0,0.0,0.0,0.09576806640624999,-0.06703764648437499,9.730035546875
24768777000,0.0,0.0,0.0,0.1149216796875,-0.0909796630859375,9.701305126953125
24769770000,0.0,0.0,0.0,0.143652099609375,-0.1005564697265625,9.662997900390625
24770766000,0.0,0.0,0.0,0.16759411621093748,-0.13407529296874998,9.6151138671875
24771761000,0.0,0.0,0.0,0.19632453613281248,-0.1388636962890625,9.572018237304688
24772757000,0.0,0.0,0.0,0.2346317626953125,-0.1580173095703125,9.533711010742186
24773753000,1.7453292519943295e-08,0.0,0.0,0.2346317626953125,-0.1771709228515625,9.5001921875
24774749000,0.0,0.0,0.0,0.21068974609375,-0.2059013427734375,9.514557397460937
24775743000,0.0,0.0,0.0,0.181959326171875,-0.229843359375,9.552864624023437
24776738000,0.0,0.0,0.0,0.1580173095703125,-0.24899697265624998,9.557653027343749
24777734000,0.0,0.0,0.0,0.143652099609375,-0.2346317626953125,9.557653027343749
24778730000,0.0,0.0,0.0,0.1292868896484375,-0.229843359375,9.567229833984374
24779726000,0.0,0.0,-1.7453292519943295e-08,0.1149216796875,-0.229843359375,9.576806640625
24780721000,0.0,0.0,0.0,0.105344873046875,-0.19632453613281248,9.591171850585937
24781717000,0.0,0.0,0.0,0.076614453125,-0.16759411621093748,9.629479077148437
24782712000,0.0,0.0,0.0,0.0526724365234375,-0.16759411621093748,9.6917283203125
24783708000,0.0,0.0,0.0,0.028730419921875,-0.1388636962890625,9.725247143554688
24784706000,0.0,0.0,0.0,0.0,-0.12449848632812499,9.773131176757811
24785699000,0.0,1.7453292519943295e-08,0.0,-0.028730419921875,-0.13407529296874998,9.811438403320311
24786695000,-1.7453292519943295e-08,0.0,0.0,-0.05746083984375,-0.1149216796875,9.801861596679688
24787691000,-1.7453292519943295e-08,0.0,0.0,-0.0383072265625,-0.0718260498046875,9.80665
24788686000,1.7453292519943295e-08,0.0,0.0,-0.028730419921875,-0.0383072265625,9.777919580078125
24789684000,-1.7453292519943295e-08,-1.7453292519943295e-08,0.0,-0.01915361328125,-0.047884033203124995,9.720458740234374
24790677000,1.7453292519943295e-08,0.0,0.0,0.009576806640625,-0.05746083984375,9.696516723632811
24791673000,0.0,0.0,0.0,0.0143652099609375,-0.105344873046875,9.667786303710937
24792669000,-1.7453292519943295e-08,0.0,0.0,0.0143652099609375,-0.13407529296874998,9.658209497070311
24793669000,1.7453292519943295e-08,1.7453292519943295e-08,0.0,0.0430956298828125,-0.1388636962890625,9.677363110351562
24794660000,0.0,0.0,0.0,0.0526724365234375,-0.1197100830078125,9.658209497070311
24795656000,0.0,0.0,0.0,0.0526724365234375,-0.1149216796875,9.672574707031249
24796652000,1.7453292519943295e-08,0.0,0.0,0.047884033203124995,-0.1149216796875,9.648632690429688
24797647000,-1.7453292519943295e-08,0.0,0.0,0.062249243164062495,-0.086191259765625,9.624690673828125
24798643000,1.7453292519943295e-08,0.0,-1.7453292519943295e-08,0.062249243164062495,-0.086191259765625,9.624690673828125
24799639000,-1.7453292519943295e-08,-1.7453292519943295e-08,0.0,0.086191259765625,-0.05746083984375,9.610325463867188
24800634000,0.0,0.0,0.0,0.105344873046875,-0.0430956298828125,9.581595043945311
24801630000,0.0,0.0,0.0,0.11013327636718749,-0.023942016601562498,9.562441430664062
24802626000,-1.7453292519943295e-08,0.0,0.0,0.1197100830078125,-0.01915361328125,9.552864624023437
24803621000,0.0,0.0,0.0,0.1149216796875,0.0,9.567229833984374
24804617000,-1.7453292519943295e-08,0.0,0.0,0.1197100830078125,0.01915361328125,9.624690673828125
24805613000,0.0,0.0,0.0,0.1197100830078125,0.0383072265625,9.639055883789062
24806610000,0.0,0.0,0.0,0.143652099609375,0.0383072265625,9.639055883789062
24807604000,0.0,0.0,0.0,0.16280571289062498,0.023942016601562498,9.629479077148437
24808599000,1.7453292519943295e-08,0.0,0.0,0.1388636962890625,0.0,9.605537060546874
24809596000,-1.7453292519943295e-08,0.0,0.0,0.1197100830078125,-0.01915361328125,9.600748657226562
24810591000,1.7453292519943295e-08,1.7453292519943295e-08,0.0,0.0909796630859375,-0.0526724365234375,9.600748657226562
24811589000,0.0,0.0,1.7453292519943295e-08,0.06703764648437499,-0.062249243164062495,9.605537060546874
24812582000,1.7453292519943295e-08,0.0,0.0,0.08140285644531249,-0.05746083984375,9.600748657226562
24813577000,0.0,0.0,0.0,0.08140285644531249,-0.062249243164062495,9.600748657226562
24814573000,0.0,0.0,0.0,0.08140285644531249,-0.0526724365234375,9.624690673828125
24815569000,0.0,0.0,0.0,0.0718260498046875,-0.0718260498046875,9.639055883789062
24816564000,-1.7453292519943295e-08,0.0,0.0,0.062249243164062495,-0.0718260498046875,9.672574707031249
24817560000,1.7453292519943295e-08,0.0,0.0,0.0526724365234375,-0.06703764648437499,9.715670336914062
24818556000,0.0,0.0,0.0,0.0430956298828125,-0.076614453125,9.749189160156249
24819551000,0.0,0.0,0.0,0.01915361328125,-0.076614453125,9.777919580078125
24820549000,0.0,0.0,-1.7453292519943295e-08,0.009576806640625,-0.0909796630859375,9.792284790039062
24821542000,-1.7453292519943295e-08,0.0,0.0,-0.01915361328125,-0.1292868896484375,9.811438403320311
24822538000,0.0,0.0,0.0,-0.0718260498046875,-0.1484405029296875,9.859322436523437
24823534000,-1.7453292519943295e-08,1.7453292519943295e-08,0.0,-0.1149216796875,-0.16759411621093748,9.9215716796875
24824529000,0.0,0.0,0.0,-0.13407529296874998,-0.1484405029296875,9.955090502929687
24825524000,0.0,0.0,0.0,-0.1197100830078125,-0.1388636962890625,9.94072529296875
24826520000,0.0,0.0,0.0,-0.1197100830078125,-0.1388636962890625,9.94072529296875
24827515000,0.0,0.0,0.0,-0.1292868896484375,-0.143652099609375,9.931148486328125
24828511000,1.7453292519943295e-08,0.0,0.0,-0.1149216796875,-0.11013327636718749,9.911994873046874
24829509000,0.0,0.0,0.0,-0.076614453125,-0.086191259765625,9.859322436523437
24830502000,0.0,0.0,0.0,-0.0526724365234375,-0.08140285644531249,9.821015209960937
24831499000,1.7453292519943295e-08,0.0,1.7453292519943295e-08,-0.01915361328125,-0.0430956298828125,9.7683427734375
24832493000,-1.7453292519943295e-08,0.0,1.7453292519943295e-08,0.028730419921875,0.0143652099609375,9.715670336914062
24833489000,1.7453292519943295e-08,0.0,0.0,0.0526724365234375,0.0,9.65342109375
24834484000,1.7453292519943295e-08,0.0,0.0,0.09576806640624999,0.009576806640625,9.619902270507811
24835480000,0.0,0.0,0.0,0.1149216796875,0.0047884033203125,9.605537060546874
24836476000,0.0,0.0,0.0,0.09576806640624999,-0.047884033203124995,9.6151138671875
24837472000,0.0,0.0,0.0,0.05746083984375,-0.062249243164062495,9.658209497070311
24838468000,0.0,0.0,-1.7453292519943295e-08,0.028730419921875,-0.086191259765625,9.686939916992188
24839462000,-1.7453292519943295e-08,0.0,0.0,-0.0047884033203125,-0.1292868896484375,9.720458740234374
24840458000,0.0,0.0,0.0,-0.028730419921875,-0.17238251953125,9.763554370117188
24841454000,0.0,0.0,0.0,-0.0526724365234375,-0.15322890625,9.787496386718749
24842449000,0.0,1.7453292519943295e-08,0.0,-0.05746083984375,-0.1484405029296875,9.816226806640625
24843445000,0.0,0.0,0.0,-0.05746083984375,-0.13407529296874998,9.80665
24844439000,-1.7453292519943295e-08,0.0,0.0,-0.0430956298828125,-0.11013327636718749,9.7683427734375
24845435000,1.7453292519943295e-08,0.0,0.0,0.0,-0.11013327636718749,9.734823950195311
24846431000,-1.7453292519943295e-08,-1.7453292519943295e-08,0.0,0.01915361328125,-0.0909796630859375,9.6917283203125
24847426000,-1.7453292519943295e-08,0.0,0.0,0.05746083984375,-0.0909796630859375,9.696516723632811
24848422000,1.7453292519943295e-08,0.0,0.0,0.0718260498046875,-0.08140285644531249,9.682151513671874
24849418000,-1.7453292519943295e-08,0.0,0.0,0.0718260498046875,-0.0718260498046875,9.65342109375
24850412000,1.7453292519943295e-08,1.7453292519943295e-08,0.0,0.0718260498046875,-0.0718260498046875,9.65342109375
24851409000,-1.7453292519943295e-08,-1.7453292519943295e-08,1.7453292519943295e-08,0.076614453125,-0.06703764648437499,9.667786303710937
24852403000,1.7453292519943295e-08,0.0,0.0,0.06703764648437499,-0.076614453125,9.643844287109374
24853399000,1.7453292519943295e-08,0.0,0.0,0.0383072265625,-0.076614453125,9.634267480468749
24854395000,0.0,0.0,0.0,0.0526724365234375,-0.1149216796875,9.648632690429688
24855390000,1.7453292519943295e-08,1.7453292519943295e-08,0.0,0.0430956298828125,-0.1005564697265625,9.634267480468749
24856386000,-1.7453292519943295e-08,0.0,0.0,0.0,-0.105344873046875,9.682151513671874
24857380000,1.7453292519943295e-08,0.0,0.0,-0.028730419921875,-0.1388636962890625,9.749189160156249
24858376000,0.0,0.0,0.0,-0.06703764648437499,-0.13407529296874998,9.787496386718749
24859372000,-1.7453292519943295e-08,0.0,0.0,-0.105344873046875,-0.16280571289062498,9.816226806640625
24860368000,0.0,0.0,0.0,-0.105344873046875,-0.16280571289062498,9.82580361328125
24861363000,-1.7453292519943295e-08,0.0,0.0,-0.086191259765625,-0.15322890625,9.797073193359374
24862359000,-1.7453292519943295e-08,0.0,0.0,-0.047884033203124995,-0.143652099609375,9.7683427734375
24863353000,0.0,0.0,0.0,-0.023942016601562498,-0.13407529296874998,9.720458740234374
24864349000,-1.7453292519943295e-08,0.0,0.0,0.009576806640625,-0.1388636962890625,9.706093530273437
24865345000,1.7453292519943295e-08,0.0,0.0,0.023942016601562498,-0.1388636962890625,9.682151513671874
24866340000,-1.7453292519943295e-08,0.0,0.0,0.0430956298828125,-0.1771709228515625,9.65342109375
24867336000,0.0,0.0,0.0,0.06703764648437499,-0.16280571289062498,9.624690673828125
24868332000,1.7453292519943295e-08,0.0,0.0,0.076614453125,-0.16759411621093748,9.610325463867188
24869326000,-1.7453292519943295e-08,0.0,0.0,0.09576806640624999,-0.1484405029296875,9.600748657226562
24870320000,1.7453292519943295e-08,0.0,0.0,0.1149216796875,-0.1292868896484375,9.581595043945311
24871318000,0.0,0.0,1.7453292519943295e-08,0.0909796630859375,-0.1484405029296875,9.552864624023437
24872312000,0.0,0.0,0.0,0.09576806640624999,-0.1149216796875,9.557653027343749
24873308000,1.7453292519943295e-08,0.0,0.0,0.0909796630859375,-0.0909796630859375,9.5384994140625
24874303000,0.0,0.0,0.0,0.105344873046875,-0.0718260498046875,9.543287817382812
24875297000,0.0,0.0,0.0,0.11013327636718749,-0.0430956298828125,9.548076220703125
24876292000,0.0,0.0,0.0,0.105344873046875,-0.0430956298828125,9.576806640625
24877288000,0.0,0.0,0.0,0.105344873046875,-0.0430956298828125,9.576806640625
24878286000,-1.7453292519943295e-08,0.0,0.0,0.11013327636718749,-0.033518823242187495,9.595960253906249
24879279000,0.0,0.0,0.0,0.105344873046875,-0.0383072265625,9.610325463867188
24880275000,0.0,0.0,0.0,0.11013327636718749,-0.06703764648437499,9.634267480468749
24881271000,-1.7453292519943295e-08,0.0,0.0,0.12449848632812499,-0.06703764648437499,9.6151138671875
24882265000,0.0,0.0,0.0,0.15322890625,-0.08140285644531249,9.552864624023437
24883260000,0.0,0.0,0.0,0.17238251953125,-0.1005564697265625,9.5001921875
24884256000,-1.7453292519943295e-08,0.0,0.0,0.19632453613281248,-0.13407529296874998,9.481038574218749
24885252000,0.0,0.0,0.0,0.1867477294921875,-0.181959326171875,9.509768994140625
24886247000,0.0,0.0,0.0,0.1580173095703125,-0.2059013427734375,9.567229833984374
24887243000,0.0,0.0,0.0,0.1292868896484375,-0.22505495605468748,9.619902270507811
24888237000,0.0,0.0,1.7453292519943295e-08,0.1005564697265625,-0.22026655273437498,9.658209497070311
24889234000,0.0,0.0,0.0,0.076614453125,-0.2059013427734375,9.686939916992188
24890228000,1.7453292519943295e-08,0.0,0.0,0.05746083984375,-0.19153613281249998,9.715670336914062
24891224000,0.0,0.0,0.0,0.028730419921875,-0.16280571289062498,9.734823950195311
24892220000,0.0,0.0,0.0,0.028730419921875,-0.13407529296874998,9.763554370117188
24893215000,0.0,0.0,0.0,0.033518823242187495,-0.1005564697265625,9.763554370117188
24894209000,1.7453292519943295e-08,1.7453292519943295e-08,0.0,0.0526724365234375,-0.08140285644531249,9.734823950195311
24895205000,0.0,0.0,0.0,0.05746083984375,-0.06703764648437499,9.720458740234374
24896201000,0.0,0.0,0.0,0.076614453125,-0.0383072265625,9.710881933593749
24897196000,0.0,0.0,0.0,0.086191259765625,-0.033518823242187495,9.710881933593749
24898192000,0.0,1.7453292519943295e-08,0.0,0.076614453125,-0.01915361328125,9.730035546875
24899189000,-1.7453292519943295e-08,0.0,0.0,0.05746083984375,-0.0143652099609375,9.744400756835937
24900181000,0.0,0.0,0.0,0.0430956298828125,-0.0430956298828125,9.758765966796874
24901177000,-1.7453292519943295e-08,0.0,0.0,0.0383072265625,-0.0526724365234375,9.744400756835937
24902173000,0.0,0.0,0.0,0.05746083984375,-0.028730419921875,9.730035546875
24903169000,-1.7453292519943295e-08,0.0,0.0,0.06703764648437499,-0.033518823242187495,9.720458740234374
24904164000,-1.7453292519943295e-08,0.0,0.0,0.0909796630859375,-0.023942016601562498,9.715670336914062
24905160000,1.7453292519943295e-08,0.0,0.0,0.1197100830078125,-0.01915361328125,9.682151513671874
24906156000,-1.7453292519943295e-08,0.0,1.7453292519943295e-08,0.12449848632812499,-0.047884033203124995,9.672574707031249
24907150000,0.0,0.0,0.0,0.12449848632812499,-0.047884033203124995,9.672574707031249
24908145000,1.7453292519943295e-08,0.0,0.0,0.13407529296874998,-0.047884033203124995,9.672574707031249
24909141000,0.0,0.0,0.0,0.1388636962890625,-0.0526724365234375,9.682151513671874
24910137000,1.7453292519943295e-08,0.0,0.0,0.1197100830078125,-0.062249243164062495,9.696516723632811
24911133000,0.0,0.0,0.0,0.105344873046875,-0.076614453125,9.715670336914062
24912128000,0.0,0.0,0.0,0.0909796630859375,-0.0909796630859375,9.715670336914062
24913122000,0.0,0.0,0.0,0.076614453125,-0.1149216796875,9.701305126953125
24914118000,0.0,0.0,0.0,0.0718260498046875,-0.105344873046875,9.6917283203125
24915113000,0.0,0.0,0.0,0.0718260498046875,-0.1149216796875,9.667786303710937
24916109000,0.0,0.0,0.0,0.062249243164062495,-0.09576806640624999,9.677363110351562
24917105000,1.7453292519943295e-08,0.0,0.0,0.0526724365234375,-0.0909796630859375,9.701305126953125
24918100000,0.0,0.0,0.0,0.033518823242187495,-0.105344873046875,9.725247143554688
24919094000,0.0,1.7453292519943295e-08,0.0,0.028730419921875,-0.105344873046875,9.725247143554688
24920089000,0.0,0.0,0.0,0.023942016601562498,-0.1005564697265625,9.725247143554688
24921085000,-1.7453292519943295e-08,0.0,0.0,0.023942016601562498,-0.1197100830078125,9.734823950195311
24922081000,0.0,0.0,0.0,0.01915361328125,-0.1292868896484375,9.744400756835937
24923077000,-1.7453292519943295e-08,-1.7453292519943295e-08,0.0,0.028730419921875,-0.1388636962890625,9.758765966796874
24924075000,-1.7453292519943295e-08,0.0,0.0,0.023942016601562498,-0.17238251953125,9.792284790039062
24925066000,1.7453292519943295e-08,0.0,0.0,0.0,-0.17238251953125,9.816226806640625
24926062000,-1.7453292519943295e-08,0.0,0.0,-0.023942016601562498,-0.1580173095703125,9.859322436523437
24927058000,0.0,1.7453292519943295e-08,0.0,-0.0430956298828125,-0.15322890625,9.878476049804688
24928053000,0.0,0.0,0.0,-0.062249243164062495,-0.1484405029296875,9.854534033203125
24929049000,1.7453292519943295e-08,0.0,0.0,-0.05746083984375,-0.1292868896484375,9.830592016601562
24930045000,1.7453292519943295e-08,0.0,0.0,-0.0526724365234375,-0.1005564697265625,9.797073193359374
24931040000,0.0,-1.7453292519943295e-08,0.0,-0.0383072265625,-0.0526724365234375,9.787496386718749
24932034000,1.7453292519943295e-08,0.0,0.0,0.0,-0.0383072265625,9.7683427734375
24933030000,0.0,0.0,0.0,0.009576806640625,-0.047884033203124995,9.753977563476562
24934026000,0.0,0.0,-1.7453292519943295e-08,0.028730419921875,-0.028730419921875,9.763554370117188
24935021000,0.0,0.0,0.0,0.0430956298828125,-0.028730419921875,9.753977563476562
24936017000,0.0,0.0,0.0,0.0526724365234375,-0.023942016601562498,9.730035546875
24937013000,0.0,1.7453292519943295e-08,0.0,0.047884033203124995,-0.0383072265625,9.710881933593749
24938007000,0.0,0.0,0.0,0.033518823242187495,-0.08140285644531249,9.720458740234374
24939003000,0.0,0.0,0.0,0.01915361328125,-0.1005564697265625,9.730035546875
24939998000,0.0,0.0,0.0,0.0143652099609375,-0.12449848632812499,9.734823950195311
24940994000,-1.7453292519943295e-08,0.0,0.0,0.0143652099609375,-0.13407529296874998,9.725247143554688
24941990000,0.0,0.0,0.0,0.0143652099609375,-0.13407529296874998,9.725247143554688
24942985000,0.0,0.0,0.0,0.0047884033203125,-0.13407529296874998,9.730035546875
24943980000,-1.7453292519943295e-08,0.0,0.0,0.01915361328125,-0.1388636962890625,9.730035546875
24944975000,0.0,0.0,0.0,0.033518823242187495,-0.12449848632812499,9.720458740234374
24945971000,0.0,0.0,0.0,0.0383072265625,-0.1292868896484375,9.706093530273437
24946968000,0.0,0.0,0.0,0.009576806640625,-0.143652099609375,9.720458740234374
24947962000,1.7453292519943295e-08,0.0,0.0,-0.009576806640625,-0.143652099609375,9.725247143554688
24948958000,0.0,-1.7453292519943295e-08,0.0,-0.023942016601562498,-0.16280571289062498,9.7683427734375
24949953000,0.0,-1.7453292519943295e-08,0.0,-0.047884033203124995,-0.181959326171875,9.811438403320311
24950948000,0.0,0.0,0.0,-0.0526724365234375,-0.1771709228515625,9.821015209960937
24951946000,0.0,0.0,0.0,-0.0718260498046875,-0.19153613281249998,9.801861596679688
24952940000,0.0,0.0,0.0,-0.0909796630859375,-0.2442085693359375,9.792284790039062
24953936000,0.0,0.0,0.0,-0.1149216796875,-0.2346317626953125,9.811438403320311
24954931000,0.0,0.0,0.0,-0.12449848632812499,-0.2346317626953125,9.80665
24955927000,0.0,0.0,0.0,-0.143652099609375,-0.22505495605468748,9.80665
24956921000,0.0,0.0,0.0,-0.1484405029296875,-0.22505495605468748,9.80665
24957917000,0.0,0.0,0.0,-0.143652099609375,-0.239420166015625,9.797073193359374
24958912000,0.0,0.0,0.0,-0.1484405029296875,-0.2825157958984375,9.80665
24959908000,-1.7453292519943295e-08,0.0,0.0,-0.16280571289062498,-0.3016694091796875,9.821015209960937
24960904000,-1.7453292519943295e-08,0.0,0.0,-0.16280571289062498,-0.33039982910156246,9.82580361328125
24961900000,0.0,0.0,0.0,-0.1580173095703125,-0.33039982910156246,9.80665
24962894000,-1.7453292519943295e-08,0.0,0.0,-0.16280571289062498,-0.33039982910156246,9.787496386718749
24963890000,0.0,0.0,0.0,-0.15322890625,-0.33518823242187495,9.801861596679688
24964885000,1.7453292519943295e-08,0.0,0.0,-0.143652099609375,-0.3112462158203125,9.797073193359374
24965881000,0.0,0.0,0.0,-0.143652099609375,-0.3112462158203125,9.797073193359374
24966878000,1.7453292519943295e-08,0.0,0.0,-0.1580173095703125,-0.3064578125,9.777919580078125
24967874000,0.0,-1.7453292519943295e-08,0.0,-0.16280571289062498,-0.316034619140625,9.792284790039062
24968866000,0.0,0.0,0.0,-0.15322890625,-0.2825157958984375,9.7683427734375
24969861000,1.7453292519943295e-08,0.0,0.0,-0.16759411621093748,-0.277727392578125,9.744400756835937
24970857000,-1.7453292519943295e-08,0.0,0.0,-0.16280571289062498,-0.277727392578125,9.758765966796874
24971853000,1.7453292519943295e-08,0.0,0.0,-0.1771709228515625,-0.2537853759765625,9.758765966796874
24972849000,0.0,0.0,0.0,-0.1484405029296875,-0.2154781494140625,9.773131176757811
24973844000,0.0,1.7453292519943295e-08,0.0,-0.12449848632812499,-0.181959326171875,9.739612353515625
24974838000,-1.7453292519943295e-08,0.0,0.0,-0.11013327636718749,-0.181959326171875,9.701305126953125
24975834000,-1.7453292519943295e-08,0.0,0.0,-0.0909796630859375,-0.16759411621093748,9.701305126953125
24976829000,0.0,0.0,0.0,-0.06703764648437499,-0.1771709228515625,9.696516723632811
24977825000,-1.7453292519943295e-08,0.0,0.0,-0.047884033203124995,-0.201112939453125,9.6917283203125
24978821000,0.0,0.0,0.0,-0.0383072265625,-0.22026655273437498,9.6917283203125
24979816000,-1.7453292519943295e-08,0.0,0.0,-0.033518823242187495,-0.26336218261718747,9.672574707031249
24980812000,-1.7453292519943295e-08,0.0,0.0,-0.028730419921875,-0.277727392578125,9.629479077148437
24981807000,1.7453292519943295e-08,0.0,0.0,-0.028730419921875,-0.3064578125,9.591171850585937
24982802000,-1.7453292519943295e-08,0.0,0.0,-0.023942016601562498,-0.32082302246093747,9.562441430664062
24983797000,1.7453292519943295e-08,0.0,0.0,-0.009576806640625,-0.32082302246093747,9.548076220703125
24984793000,0.0,-1.7453292519943295e-08,0.0,0.0,-0.3064578125,9.524134204101562
24985791000,-1.7453292519943295e-08,0.0,0.0,0.01915361328125,-0.296881005859375,9.524134204101562
24986785000,1.7453292519943295e-08,0.0,0.0,0.023942016601562498,-0.28730419921875,9.543287817382812
24987780000,0.0,0.0,0.0,0.009576806640625,-0.2825157958984375,9.557653027343749
24988774000,1.7453292519943295e-08,0.0,0.0,0.0047884033203125,-0.2346317626953125,9.610325463867188
24989770000,0.0,0.0,0.0,0.0,-0.19153613281249998,9.639055883789062
24990766000,-1.7453292519943295e-08,0.0,0.0,0.0047884033203125,-0.1292868896484375,9.667786303710937
24991761000,1.7453292519943295e-08,0.0,0.0,0.0047884033203125,-0.1292868896484375,9.667786303710937
24992757000,-1.7453292519943295e-08,-1.7453292519943295e-08,0.0,0.028730419921875,-0.08140285644531249,9.715670336914062
24993752000,1.7453292519943295e-08,0.0,0.0,0.028730419921875,-0.0526724365234375,9.730035546875
24994747000,0.0,0.0,0.0,0.028730419921875,-0.028730419921875,9.758765966796874
24995743000,-1.7453292519943295e-08,0.0,0.0,0.028730419921875,-0.033518823242187495,9.777919580078125
24996739000,0.0,0.0,0.0,0.023942016601562498,-0.0526724365234375,9.763554370117188
24997734000,-1.7453292519943295e-08,0.0,0.0,0.028730419921875,-0.0718260498046875,9.7683427734375
24998735000,0.0,1.7453292519943295e-08,0.0,0.01915361328125,-0.1005564697265625,9.758765966796874
24999725000,0.0,0.0,0.0,0.01915361328125,-0.1197100830078125,9.739612353515625
25000721000,-1.7453292519943295e-08,0.0,0.0,0.033518823242187495,-0.1484405029296875,9.701305126953125
25001717000,0.0,0.0,0.0,0.033518823242187495,-0.16280571289062498,9.672574707031249
25002712000,0.0,0.0,-1.7453292519943295e-08,0.0143652099609375,-0.16759411621093748,9.672574707031249
25003708000,0.0,0.0,0.0,0.009576806640625,-0.17238251953125,9.667786303710937
25004704000,0.0,0.0,0.0,0.01915361328125,-0.1197100830078125,9.624690673828125
25005699000,1.7453292519943295e-08,0.0,0.0,0.0526724365234375,-0.08140285644531249,9.581595043945311
25006693000,0.0,0.0,0.0,0.0909796630859375,-0.05746083984375,9.548076220703125
25007689000,0.0,0.0,0.0,0.1197100830078125,-0.0143652099609375,9.552864624023437
25008684000,1.7453292519943295e-08,0.0,0.0,0.143652099609375,-0.009576806640625,9.572018237304688
25009680000,1.7453292519943295e-08,0.0,0.0,0.17238251953125,0.023942016601562498,9.581595043945311
25010676000,1.7453292519943295e-08,0.0,0.0,0.2059013427734375,0.028730419921875,9.595960253906249
25011672000,1.7453292519943295e-08,-1.7453292519943295e-08,0.0,0.19153613281249998,0.0047884033203125,9.629479077148437
25012666000,0.0,-1.7453292519943295e-08,0.0,0.16280571289062498,-0.0143652099609375,9.715670336914062
25013661000,0.0,0.0,0.0,0.1149216796875,-0.062249243164062495,9.811438403320311
25014657000,0.0,0.0,1.7453292519943295e-08,0.062249243164062495,-0.076614453125,9.830592016601562
25015653000,0.0,0.0,0.0,0.0383072265625,-0.08140285644531249,9.797073193359374
25016649000,-1.7453292519943295e-08,0.0,1.7453292519943295e-08,0.0383072265625,-0.1197100830078125,9.739612353515625
25017644000,-1.7453292519943295e-08,0.0,0.0,0.028730419921875,-0.1292868896484375,9.701305126953125
25018639000,-1.7453292519943295e-08,0.0,0.0,0.0430956298828125,-0.13407529296874998,9.686939916992188
25019635000,-1.7453292519943295e-08,0.0,0.0,0.0383072265625,-0.16759411621093748,9.658209497070311
25020630000,0.0,0.0,0.0,0.0430956298828125,-0.16280571289062498,9.648632690429688
25021626000,1.7453292519943295e-08,0.0,0.0,0.0430956298828125,-0.15322890625,9.634267480468749
25022622000,-1.7453292519943295e-08,0.0,0.0,0.047884033203124995,-0.1580173095703125,9.619902270507811
25023617000,0.0,0.0,0.0,0.062249243164062495,-0.143652099609375,9.605537060546874
25024613000,0.0,0.0,0.0,0.062249243164062495,-0.1484405029296875,9.576806640625
25025611000,1.7453292519943295e-08,0.0,0.0,0.08140285644531249,-0.1484405029296875,9.591171850585937
25026604000,1.7453292519943295e-08,0.0,0.0,0.1005564697265625,-0.13407529296874998,9.610325463867188
25027600000,-1.7453292519943295e-08,0.0,0.0,0.1005564697265625,-0.143652099609375,9.6151138671875
25028595000,0.0,0.0,0.0,0.1005564697265625,-0.143652099609375,9.6151138671875
25029591000,1.7453292519943295e-08,0.0,0.0,0.1005564697265625,-0.13407529296874998,9.65342109375
25030587000,0.0,0.0,0.0,0.1005564697265625,-0.105344873046875,9.662997900390625
25031582000,1.7453292519943295e-08,0.0,0.0,0.1005564697265625,-0.09576806640624999,9.677363110351562
25032577000,-1.7453292519943295e-08,0.0,0.0,0.1197100830078125,-0.05746083984375,9.6917283203125
25033573000,0.0,0.0,0.0,0.105344873046875,-0.0430956298828125,9.706093530273437
25034569000,0.0,0.0,0.0,0.105344873046875,-0.0383072265625,9.739612353515625
25035564000,0.0,0.0,0.0,0.11013327636718749,-0.023942016601562498,9.758765966796874
25036560000,0.0,0.0,0.0,0.1005564697265625,-0.047884033203124995,9.763554370117188
25037555000,0.0,0.0,0.0,0.076614453125,-0.076614453125,9.753977563476562
25038551000,0.0,0.0,0.0,0.062249243164062495,-0.105344873046875,9.739612353515625
25039546000,-1.7453292519943295e-08,0.0,0.0,0.062249243164062495,-0.12449848632812499,9.739612353515625
25040542000,0.0,1.7453292519943295e-08,0.0,0.06703764648437499,-0.1388636962890625,9.725247143554688
25041538000,0.0,0.0,0.0,0.062249243164062495,-0.1197100830078125,9.706093530273437
25042534000,0.0,0.0,0.0,0.0526724365234375,-0.13407529296874998,9.710881933593749
25043529000,1.7453292519943295e-08,0.0,0.0,0.023942016601562498,-0.13407529296874998,9.720458740234374
25044524000,-1.7453292519943295e-08,0.0,0.0,-0.009576806640625,-0.1149216796875,9.739612353515625
25045520000,0.0,0.0,0.0,-0.0047884033203125,-0.08140285644531249,9.730035546875
25046516000,0.0,0.0,0.0,0.0047884033203125,-0.0383072265625,9.682151513671874
25047511000,0.0,-1.7453292519943295e-08,0.0,0.033518823242187495,0.0,9.65342109375
25048507000,1.7453292519943295e-08,0.0,0.0,0.076614453125,0.01915361328125,9.639055883789062
25049503000,0.0,-1.7453292519943295e-08,0.0,0.105344873046875,0.0526724365234375,9.591171850585937
25050498000,0.0,0.0,0.0,0.1292868896484375,0.08140285644531249,9.5384994140625
25051494000,0.0,0.0,0.0,0.1484405029296875,0.06703764648437499,9.524134204101562
25052491000,-1.7453292519943295e-08,0.0,0.0,0.1484405029296875,0.033518823242187495,9.495403784179686
25053485000,1.7453292519943295e-08,0.0,0.0,0.1484405029296875,-0.0047884033203125,9.490615380859374
25054481000,-1.7453292519943295e-08,0.0,1.7453292519943295e-08,0.1388636962890625,-0.033518823242187495,9.5001921875
25055476000,-1.7453292519943295e-08,0.0,0.0,0.11013327636718749,-0.06703764648437499,9.514557397460937
25056472000,0.0,0.0,0.0,0.08140285644531249,-0.11013327636718749,9.548076220703125
25057469000,-1.7453292519943295e-08,1.7453292519943295e-08,0.0,0.08140285644531249,-0.11013327636718749,9.548076220703125
25058463000,0.0,1.7453292519943295e-08,0.0,0.0383072265625,-0.1580173095703125,9.591171850585937
25059459000,-1.7453292519943295e-08,0.0,0.0,0.0,-0.2059013427734375,9.667786303710937
25060455000,1.7453292519943295e-08,0.0,0.0,-0.0526724365234375,-0.229843359375,9.734823950195311
25061450000,1.7453292519943295e-08,0.0,0.0,-0.06703764648437499,-0.229843359375,9.7683427734375
25062445000,-1.7453292519943295e-08,0.0,-1.7453292519943295e-08,-0.11013327636718749,-0.22026655273437498,9.80665
25063441000,0.0,0.0,0.0,-0.12449848632812499,-0.201112939453125,9.821015209960937
25064436000,0.0,0.0,0.0,-0.17238251953125,-0.1580173095703125,9.835380419921874
25065434000,0.0,1.7453292519943295e-08,0.0,-0.2059013427734375,-0.12449848632812499,9.840168823242188
25066428000,1.7453292519943295e-08,0.0,0.0,-0.229843359375,-0.08140285644531249,9.849745629882811
25067424000,-1.7453292519943295e-08,0.0,0.0,-0.2346317626953125,-0.028730419921875,9.878476049804688
25068418000,0.0,0.0,0.0,-0.229843359375,0.0,9.883264453125
25069414000,1.7453292519943295e-08,0.0,0.0,-0.2346317626953125,0.009576806640625,9.849745629882811
25070410000,0.0,0.0,0.0,-0.2059013427734375,0.0143652099609375,9.821015209960937
25071406000,0.0,0.0,0.0,-0.1771709228515625,-0.009576806640625,9.7683427734375
25072403000,-1.7453292519943295e-08,0.0,0.0,-0.1484405029296875,-0.01915361328125,9.725247143554688
25073397000,0.0,0.0,0.0,-0.09576806640624999,-0.023942016601562498,9.672574707031249
25074392000,0.0,0.0,0.0,-0.0526724365234375,-0.01915361328125,9.619902270507811
25075388000,0.0,0.0,0.0,-0.028730419921875,-0.028730419921875,9.600748657226562
25076383000,0.0,0.0,0.0,-0.0143652099609375,-0.033518823242187495,9.591171850585937
25077379000,-1.7453292519943295e-08,0.0,0.0,-0.0143652099609375,-0.047884033203124995,9.595960253906249
25078375000,1.7453292519943295e-08,1.7453292519943295e-08,0.0,-0.009576806640625,-0.086191259765625,9.634267480468749
25079371000,0.0,0.0,0.0,-0.033518823242187495,-0.1005564697265625,9.658209497070311
25080366000,0.0,0.0,0.0,-0.033518823242187495,-0.1005564697265625,9.658209497070311
25081361000,0.0,0.0,0.0,-0.0526724365234375,-0.1149216796875,9.6917283203125
25082356000,0.0,0.0,-1.7453292519943295e-08,-0.05746083984375,-0.1292868896484375,9.715670336914062
25083352000,1.7453292519943295e-08,0.0,0.0,-0.062249243164062495,-0.12449848632812499,9.739612353515625
25084348000,0.0,0.0,0.0,-0.0383072265625,-0.11013327636718749,9.734823950195311
25085343000,0.0,0.0,0.0,-0.0383072265625,-0.09576806640624999,9.710881933593749
25086339000,0.0,0.0,0.0,-0.047884033203124995,-0.076614453125,9.715670336914062
25087333000,0.0,0.0,0.0,-0.033518823242187495,-0.062249243164062495,9.720458740234374
25088329000,1.7453292519943295e-08,0.0,0.0,-0.047884033203124995,-0.06703764648437499,9.730035546875
25089325000,0.0,-1.7453292519943295e-08,0.0,-0.08140285644531249,-0.0718260498046875,9.797073193359374
25090320000,0.0,0.0,0.0,-0.1149216796875,-0.08140285644531249,9.86411083984375
25091316000,0.0,-1.7453292519943295e-08,0.0,-0.13407529296874998,-0.086191259765625,9.878476049804688
25092313000,0.0,-1.7453292519943295e-08,0.0,-0.1197100830078125,-0.086191259765625,9.859322436523437
25093307000,-1.7453292519943295e-08,0.0,0.0,-0.11013327636718749,-0.076614453125,9.816226806640625
25094302000,-1.7453292519943295e-08,0.0,0.0,-0.086191259765625,-0.0718260498046875,9.773131176757811
25095298000,0.0,0.0,0.0,-0.05746083984375,-0.06703764648437499,9.739612353515625
25096294000,0.0,0.0,0.0,-0.033518823242187495,-0.08140285644531249,9.715670336914062
25097290000,-1.7453292519943295e-08,0.0,0.0,-0.0047884033203125,-0.0909796630859375,9.710881933593749
25098285000,0.0,0.0,0.0,-0.0047884033203125,-0.09576806640624999,9.686939916992188
25099280000,0.0,0.0,0.0,0.0,-0.1149216796875,9.686939916992188
25100276000,0.0,0.0,0.0,0.0047884033203125,-0.12449848632812499,9.706093530273437
25101272000,0.0,0.0,0.0,0.0,-0.13407529296874998,9.715670336914062
25102269000,0.0,0.0,0.0,-0.0047884033203125,-0.1484405029296875,9.730035546875
25103263000,0.0,0.0,0.0,-0.0047884033203125,-0.1388636962890625,9.758765966796874
25104259000,0.0,0.0,0.0,0.0,-0.1292868896484375,9.763554370117188
25105255000,0.0,0.0,0.0,0.0,-0.1292868896484375,9.763554370117188
25106249000,0.0,0.0,0.0,-0.0047884033203125,-0.1197100830078125,9.787496386718749
25107245000,0.0,0.0,0.0,-0.028730419921875,-0.1149216796875,9.816226806640625
25108241000,1.7453292519943295e-08,-1.7453292519943295e-08,0.0,-0.028730419921875,-0.086191259765625,9.82580361328125
25109236000,0.0,-1.7453292519943295e-08,1.7453292519943295e-08,-0.023942016601562498,-0.0383072265625,9.801861596679688
25110232000,0.0,0.0,1.7453292519943295e-08,-0.01915361328125,0.0047884033203125,9.792284790039062
25111228000,0.0,0.0,0.0,0.009576806640625,0.062249243164062495,9.734823950195311
25112222000,-1.7453292519943295e-08,0.0,1.7453292519943295e-08,0.0526724365234375,0.0909796630859375,9.682151513671874
25113218000,0.0,0.0,0.0,0.08140285644531249,0.076614453125,9.629479077148437
25114214000,-1.7453292519943295e-08,0.0,0.0,0.1005564697265625,0.06703764648437499,9.595960253906249
25115210000,0.0,1.7453292519943295e-08,0.0,0.1149216796875,0.0383072265625,9.567229833984374
25116205000,0.0,0.0,0.0,0.105344873046875,0.01915361328125,9.581595043945311
25117201000,0.0,1.7453292519943295e-08,-1.7453292519943295e-08,0.08140285644531249,-0.0047884033203125,9.6151138671875
25118196000,1.7453292519943295e-08,0.0,0.0,0.05746083984375,-0.0526724365234375,9.662997900390625
25119191000,0.0,0.0,0.0,0.0383072265625,-0.062249243164062495,9.706093530273437
25120187000,0.0,1.7453292519943295e-08,-1.7453292519943295e-08,0.028730419921875,-0.1197100830078125,9.730035546875
25121183000,0.0,0.0,0.0,0.0,-0.1484405029296875,9.734823950195311
25122180000,0.0,0.0,-1.7453292519943295e-08,-0.0143652099609375,-0.16759411621093748,9.763554370117188
25123174000,0.0,0.0,0.0,-0.0143652099609375,-0.1484405029296875,9.782707983398437
25124169000,0.0,0.0,0.0,-0.028730419921875,-0.1388636962890625,9.777919580078125
25125164000,1.7453292519943295e-08,0.0,0.0,-0.0526724365234375,-0.1580173095703125,9.787496386718749
25126160000,0.0,0.0,0.0,-0.08140285644531249,-0.1388636962890625,9.787496386718749
25127156000,-1.7453292519943295e-08,0.0,0.0,-0.086191259765625,-0.1197100830078125,9.801861596679688
25128151000,0.0,0.0,0.0,-0.08140285644531249,-0.11013327636718749,9.80665
25129149000,0.0,-1.7453292519943295e-08,0.0,-0.076614453125,-0.08140285644531249,9.787496386718749
25130143000,-1.7453292519943295e-08,0.0,0.0,-0.06703764648437499,-0.0526724365234375,9.777919580078125
25131137000,1.7453292519943295e-08,0.0,0.0,-0.06703764648437499,-0.0526724365234375,9.753977563476562
25132133000,-1.7453292519943295e-08,0.0,0.0,-0.0718260498046875,-0.0383072265625,9.725247143554688
25133128000,0.0,1.7453292519943295e-08,0.0,-0.06703764648437499,-0.023942016601562498,9.720458740234374
25134124000,0.0,0.0,0.0,-0.0526724365234375,-0.047884033203124995,9.6917283203125
25135120000,0.0,0.0,0.0,-0.0526724365234375,-0.047884033203124995,9.6917283203125
25136116000,0.0,1.7453292519943295e-08,0.0,-0.033518823242187495,-0.0430956298828125,9.667786303710937
25137111000,0.0,0.0,0.0,-0.023942016601562498,-0.05746083984375,9.643844287109374
25138106000,0.0,0.0,0.0,0.0,-0.0718260498046875,9.619902270507811
25139102000,0.0,0.0,0.0,0.01915361328125,-0.05746083984375,9.600748657226562
25140097000,0.0,0.0,0.0,0.033518823242187495,-0.05746083984375,9.605537060546874
25141093000,0.0,0.0,0.0,0.047884033203124995,-0.05746083984375,9.624690673828125
25142090000,-1.7453292519943295e-08,0.0,0.0,0.0718260498046875,-0.0143652099609375,9.648632690429688
25143083000,1.7453292519943295e-08,0.0,0.0,0.0909796630859375,-0.0047884033203125,9.639055883789062
25144078000,-1.7453292519943295e-08,0.0,0.0,0.11013327636718749,0.009576806640625,9.639055883789062
25145074000,0.0,0.0,0.0,0.12449848632812499,0.0430956298828125,9.6151138671875
25146070000,0.0,-1.7453292519943295e-08,0.0,0.12449848632812499,0.0383072265625,9.600748657226562
25147065000,0.0,0.0,0.0,0.1149216796875,0.033518823242187495,9.605537060546874
25148062000,1.7453292519943295e-08,0.0,0.0,0.105344873046875,0.033518823242187495,9.600748657226562
25149055000,-1.7453292519943295e-08,0.0,0.0,0.1197100830078125,0.0526724365234375,9.586383447265625
25150051000,0.0,0.0,0.0,0.13407529296874998,0.06703764648437499,9.557653027343749
25151049000,0.0,-1.7453292519943295e-08,1.7453292519943295e-08,0.13407529296874998,0.0718260498046875,9.5384994140625
25152042000,0.0,0.0,0.0,0.1388636962890625,0.086191259765625,9.543287817382812
25153039000,0.0,0.0,0.0,0.1484405029296875,0.062249243164062495,9.548076220703125
25154035000,0.0,0.0,0.0,0.1292868896484375,0.0383072265625,9.557653027343749
25155029000,0.0,1.7453292519943295e-08,0.0,0.1149216796875,0.0383072265625,9.600748657226562
25156024000,0.0,0.0,0.0,0.105344873046875,0.0383072265625,9.619902270507811
25157019000,0.0,0.0,0.0,0.105344873046875,0.047884033203124995,9.643844287109374
25158015000,0.0,0.0,0.0,0.11013327636718749,0.033518823242187495,9.658209497070311
25159011000,-1.7453292519943295e-08,0.0,0.0,0.0909796630859375,0.0047884033203125,9.677363110351562
25160008000,1.7453292519943295e-08,0.0,0.0,0.076614453125,-0.0383072265625,9.710881933593749
25161003000,0.0,0.0,0.0,0.076614453125,-0.0383072265625,9.710881933593749
25161996000,0.0,0.0,0.0,0.062249243164062495,-0.076614453125,9.744400756835937
25162992000,0.0,0.0,0.0,0.028730419921875,-0.11013327636718749,9.801861596679688
25163988000,-1.7453292519943295e-08,0.0,0.0,-0.01915361328125,-0.16280571289062498,9.859322436523437
25164983000,1.7453292519943295e-08,0.0,0.0,-0.0526724365234375,-0.1867477294921875,9.888052856445311
25165979000,0.0,0.0,0.0,-0.06703764648437499,-0.1771709228515625,9.897629663085937
25166975000,-1.7453292519943295e-08,0.0,0.0,-0.047884033203124995,-0.19153613281249998,9.86411083984375
25167968000,0.0,0.0,0.0,-0.0430956298828125,-0.2059013427734375,9.792284790039062
25168964000,0.0,0.0,0.0,-0.033518823242187495,-0.2154781494140625,9.744400756835937
25169960000,0.0,0.0,0.0,-0.023942016601562498,-0.229843359375,9.715670336914062
25170955000,-1.7453292519943295e-08,0.0,0.0,-0.0143652099609375,-0.201112939453125,9.686939916992188
25171951000,-1.7453292519943295e-08,0.0,0.0,0.0047884033203125,-0.143652099609375,9.65342109375
25172948000,1.7453292519943295e-08,0.0,0.0,0.033518823242187495,-0.11013327636718749,9.595960253906249
25173941000,-1.7453292519943295e-08,0.0,0.0,0.0430956298828125,-0.06703764648437499,9.557653027343749
25174936000,0.0,0.0,0.0,0.05746083984375,-0.0718260498046875,9.567229833984374
25175932000,0.0,0.0,0.0,0.076614453125,-0.076614453125,9.576806640625
25176928000,0.0,0.0,0.0,0.0909796630859375,-0.076614453125,9.586383447265625
25177924000,0.0,0.0,0.0,0.08140285644531249,-0.08140285644531249,9.600748657226562
25178919000,0.0,0.0,0.0,0.08140285644531249,-0.0909796630859375,9.610325463867188
25179915000,0.0,1.7453292519943295e-08,0.0,0.086191259765625,-0.105344873046875,9.634267480468749
25180908000,0.0,1.7453292519943295e-08,0.0,0.0718260498046875,-0.0909796630859375,9.682151513671874
25181904000,-1.7453292519943295e-08,1.7453292519943295e-08,0.0,0.06703764648437499,-0.086191259765625,9.725247143554688
25182900000,0.0,0.0,0.0,0.06703764648437499,-0.08140285644531249,9.773131176757811
25183895000,-1.7453292519943295e-08,0.0,0.0,0.0526724365234375,-0.0718260498046875,9.792284790039062
25184891000,0.0,0.0,0.0,0.0526724365234375,-0.0718260498046875,9.80665
25185887000,0.0,-1.7453292519943295e-08,0.0,0.0526724365234375,-0.0526724365234375,9.797073193359374
25186880000,-1.7453292519943295e-08,0.0,0.0,0.0526724365234375,-0.0526724365234375,9.797073193359374
25187875000,1.7453292519943295e-08,-1.7453292519943295e-08,0.0,0.047884033203124995,-0.023942016601562498,9.7683427734375
25188871000,0.0,-1.7453292519943295e-08,0.0,0.0430956298828125,-0.01915361328125,9.749189160156249
25189867000,0.0,0.0,0.0,0.028730419921875,-0.023942016601562498,9.720458740234374
25190863000,0.0,0.0,0.0,0.01915361328125,-0.023942016601562498,9.672574707031249
25191858000,0.0,0.0,0.0,0.0430956298828125,-0.023942016601562498,9.662997900390625
25192851000,0.0,0.0,0.0,0.0383072265625,-0.047884033203124995,9.629479077148437
25193847000,-1.7453292519943295e-08,0.0,0.0,0.028730419921875,-0.0718260498046875,9.629479077148437
25194843000,1.7453292519943295e-08,0.0,0.0,0.0430956298828125,-0.08140285644531249,9.624690673828125
25195839000,0.0,0.0,0.0,0.0526724365234375,-0.076614453125,9.591171850585937
25196834000,0.0,0.0,0.0,0.05746083984375,-0.105344873046875,9.576806640625
25197830000,1.7453292519943295e-08,1.7453292519943295e-08,0.0,0.0383072265625,-0.12449848632812499,9.591171850585937
25198823000,0.0,0.0,0.0,0.028730419921875,-0.1580173095703125,9.619902270507811
25199819000,1.7453292519943295e-08,0.0,0.0,0.0047884033203125,-0.1771709228515625,9.634267480468749
25200814000,-1.7453292519943295e-08,0.0,0.0,0.009576806640625,-0.1484405029296875,9.648632690429688
25201810000,1.7453292519943295e-08,0.0,-1.7453292519943295e-08,0.023942016601562498,-0.1484405029296875,9.677363110351562
25202807000,0.0,0.0,0.0,0.033518823242187495,-0.12449848632812499,9.672574707031249
25203802000,0.0,-1.7453292519943295e-08,0.0,0.0430956298828125,-0.1005564697265625,9.658209497070311
25204797000,0.0,0.0,0.0,0.06703764648437499,-0.08140285644531249,9.667786303710937
25205790000,-1.7453292519943295e-08,0.0,0.0,0.0526724365234375,-0.105344873046875,9.696516723632811
25206786000,0.0,0.0,0.0,0.0143652099609375,-0.1197100830078125,9.749189160156249
25207782000,0.0,0.0,1.7453292519943295e-08,-0.028730419921875,-0.143652099609375,9.80665
25208778000,0.0,0.0,1.7453292519943295e-08,-0.076614453125,-0.16280571289062498,9.840168823242188
25209773000,0.0,0.0,0.0,-0.105344873046875,-0.16759411621093748,9.868899243164062
25210769000,0.0,0.0,1.7453292519943295e-08,-0.143652099609375,-0.2154781494140625,9.907206469726562
25211763000,0.0,0.0,0.0,-0.143652099609375,-0.2154781494140625,9.907206469726562
25212759000,0.0,0.0,0.0,-0.1484405029296875,-0.2346317626953125,9.931148486328125
25213755000,-1.7453292519943295e-08,0.0,0.0,-0.143652099609375,-0.2346317626953125,9.911994873046874
25214750000,0.0,0.0,0.0,-0.13407529296874998,-0.2537853759765625,9.868899243164062
25215746000,-1.7453292519943295e-08,0.0,0.0,-0.0909796630859375,-0.24899697265624998,9.816226806640625
25216743000,-1.7453292519943295e-08,0.0,0.0,-0.062249243164062495,-0.229843359375,9.773131176757811
25217736000,1.7453292519943295e-08,1.7453292519943295e-08,-1.7453292519943295e-08,-0.033518823242187495,-0.27293898925781246,9.753977563476562
25218732000,0.0,0.0,0.0,-0.01915361328125,-0.2920926025390625,9.7683427734375
25219727000,0.0,0.0,-1.7453292519943295e-08,-0.033518823242187495,-0.3016694091796875,9.787496386718749
25220723000,0.0,0.0,0.0,-0.05746083984375,-0.2825157958984375,9.82580361328125
25221719000,1.7453292519943295e-08,0.0,0.0,-0.08140285644531249,-0.27293898925781246,9.8449572265625
25222714000,0.0,-1.7453292519943295e-08,0.0,-0.1149216796875,-0.277727392578125,9.840168823242188
25223709000,-1.7453292519943295e-08,0.0,0.0,-0.13407529296874998,-0.24899697265624998,9.840168823242188
25224705000,0.0,0.0,0.0,-0.1388636962890625,-0.2059013427734375,9.830592016601562
25225700000,0.0,0.0,0.0,-0.1484405029296875,-0.17238251953125,9.801861596679688
25226696000,-1.7453292519943295e-08,0.0,0.0,-0.1388636962890625,-0.1292868896484375,9.773131176757811
25227692000,0.0,0.0,0.0,-0.1149216796875,-0.076614453125,9.710881933593749
25228688000,-1.7453292519943295e-08,0.0,0.0,-0.076614453125,-0.0383072265625,9.643844287109374
25229683000,1.7453292519943295e-08,0.0,0.0,-0.01915361328125,-0.028730419921875,9.576806640625
25230678000,1.7453292519943295e-08,0.0,0.0,0.0,-0.0430956298828125,9.528922607421874
25231673000,-1.7453292519943295e-08,0.0,0.0,0.01915361328125,-0.062249243164062495,9.543287817382812
25232669000,1.7453292519943295e-08,0.0,0.0,0.009576806640625,-0.0909796630859375,9.576806640625
25233665000,1.7453292519943295e-08,0.0,1.7453292519943295e-08,-0.0143652099609375,-0.1292868896484375,9.6151138671875
25234660000,0.0,0.0,0.0,-0.0526724365234375,-0.16280571289062498,9.648632690429688
25235656000,0.0,0.0,0.0,-0.0909796630859375,-0.1867477294921875,9.706093530273437
25236650000,1.7453292519943295e-08,0.0,1.7453292519943295e-08,-0.08140285644531249,-0.2154781494140625,9.744400756835937
25237645000,0.0,0.0,0.0,-0.0718260498046875,-0.21068974609375,9.7683427734375
25238641000,-1.7453292519943295e-08,0.0,0.0,-0.08140285644531249,-0.2154781494140625,9.792284790039062
25239637000,0.0,0.0,0.0,-0.076614453125,-0.2442085693359375,9.792284790039062
25240632000,-1.7453292519943295e-08,0.0,0.0,-0.09576806640624999,-0.229843359375,9.80665
25241628000,1.7453292519943295e-08,0.0,0.0,-0.105344873046875,-0.22026655273437498,9.835380419921874
25242621000,0.0,0.0,0.0,-0.105344873046875,-0.22026655273437498,9.835380419921874
25243617000,-1.7453292519943295e-08,-1.7453292519943295e-08,0.0,-0.11013327636718749,-0.2059013427734375,9.854534033203125
25244613000,1.7453292519943295e-08,0.0,0.0,-0.09576806640624999,-0.16280571289062498,9.830592016601562
25245608000,-1.7453292519943295e-08,0.0,0.0,-0.0718260498046875,-0.11013327636718749,9.777919580078125
25246604000,0.0,0.0,0.0,-0.0526724365234375,-0.0909796630859375,9.715670336914062
25247600000,0.0,0.0,0.0,-0.009576806640625,-0.0526724365234375,9.677363110351562
25248593000,0.0,0.0,0.0,0.023942016601562498,-0.028730419921875,9.619902270507811
25249589000,1.7453292519943295e-08,0.0,0.0,0.0526724365234375,-0.047884033203124995,9.581595043945311
25250584000,-1.7453292519943295e-08,-1.7453292519943295e-08,0.0,0.086191259765625,-0.023942016601562498,9.552864624023437
25251580000,0.0,0.0,0.0,0.1197100830078125,-0.0143652099609375,9.533711010742186
25252576000,1.7453292519943295e-08,0.0,0.0,0.1484405029296875,-0.009576806640625,9.504980590820312
25253571000,0.0,0.0,0.0,0.16759411621093748,0.009576806640625,9.490615380859374
25254567000,1.7453292519943295e-08,0.0,0.0,0.1867477294921875,-0.0047884033203125,9.504980590820312
25255561000,0.0,0.0,0.0,0.1867477294921875,0.0,9.543287817382812
25256557000,0.0,0.0,0.0,0.16280571289062498,-0.033518823242187495,9.595960253906249
25257553000,0.0,1.7453292519943295e-08,0.0,0.13407529296874998,-0.0526724365234375,9.634267480468749
25258549000,-1.7453292519943295e-08,0.0,0.0,0.1149216796875,-0.047884033203124995,9.658209497070311
25259544000,1.7453292519943295e-08,1.7453292519943295e-08,0.0,0.1005564697265625,-0.062249243164062495,9.667786303710937
25260540000,-1.7453292519943295e-08,0.0,0.0,0.0718260498046875,-0.0718260498046875,9.667786303710937
25261535000,-1.7453292519943295e-08,0.0,0.0,0.0526724365234375,-0.086191259765625,9.677363110351562
25262530000,0.0,0.0,0.0,0.0383072265625,-0.09576806640624999,9.686939916992188
25263526000,-1.7453292519943295e-08,0.0,0.0,0.028730419921875,-0.1197100830078125,9.706093530273437
25264522000,0.0,0.0,0.0,0.0430956298828125,-0.1197100830078125,9.730035546875
25265518000,-1.7453292519943295e-08,-1.7453292519943295e-08,0.0,0.047884033203124995,-0.1005564697265625,9.715670336914062
25266513000,0.0,0.0,0.0,0.0526724365234375,-0.11013327636718749,9.6917283203125
25267507000,0.0,-1.7453292519943295e-08,0.0,0.028730419921875,-0.1149216796875,9.677363110351562
25268503000,-1.7453292519943295e-08,0.0,0.0,0.01915361328125,-0.12449848632812499,9.682151513671874
25269499000,1.7453292519943295e-08,0.0,0.0,0.0383072265625,-0.11013327636718749,9.662997900390625
25270495000,0.0,-1.7453292519943295e-08,0.0,0.047884033203124995,-0.086191259765625,9.629479077148437
25271490000,0.0,0.0,0.0,0.047884033203124995,-0.062249243164062495,9.634267480468749
25272486000,-1.7453292519943295e-08,0.0,0.0,0.0143652099609375,-0.06703764648437499,9.672574707031249
25273482000,1.7453292519943295e-08,1.7453292519943295e-08,0.0,0.0143652099609375,-0.06703764648437499,9.672574707031249
25274476000,1.7453292519943295e-08,1.7453292519943295e-08,0.0,-0.009576806640625,-0.062249243164062495,9.725247143554688
25275472000,0.0,0.0,0.0,-0.0143652099609375,-0.047884033203124995,9.758765966796874
25276467000,0.0,0.0,0.0,-0.023942016601562498,-0.033518823242187495,9.758765966796874
25277463000,0.0,0.0,0.0,0.0,0.009576806640625,9.715670336914062
25278459000,0.0,0.0,0.0,0.023942016601562498,0.0,9.662997900390625
25279455000,0.0,0.0,0.0,0.023942016601562498,0.009576806640625,9.610325463867188
25280449000,-1.7453292519943295e-08,0.0,0.0,0.0526724365234375,0.033518823242187495,9.586383447265625
25281444000,-1.7453292519943295e-08,0.0,0.0,0.09576806640624999,0.05746083984375,9.5384994140625
25282440000,0.0,0.0,0.0,0.12449848632812499,0.05746083984375,9.466673364257812
25283436000,0.0,0.0,0.0,0.1580173095703125,0.0526724365234375,9.433154541015625
25284432000,0.0,0.0,0.0,0.181959326171875,0.023942016601562498,9.404424121093749
25285430000,-1.7453292519943295e-08,0.0,0.0,0.19632453613281248,-0.009576806640625,9.394847314453125
25286421000,1.7453292519943295e-08,0.0,0.0,0.19153613281249998,-0.0526724365234375,9.404424121093749
25287416000,0.0,0.0,0.0,0.17238251953125,-0.0718260498046875,9.428366137695312
25288412000,-1.7453292519943295e-08,0.0,0.0,0.143652099609375,-0.086191259765625,9.471461767578125
25289408000,1.7453292519943295e-08,0.0,0.0,0.1292868896484375,-0.105344873046875,9.466673364257812
25290404000,0.0,0.0,0.0,0.12449848632812499,-0.12449848632812499,9.457096557617186
25291399000,0.0,0.0,0.0,0.1197100830078125,-0.11013327636718749,9.490615380859374
25292393000,0.0,0.0,0.0,0.12449848632812499,-0.1197100830078125,9.514557397460937
25293388000,1.7453292519943295e-08,0.0,0.0,0.12449848632812499,-0.1149216796875,9.548076220703125
25294384000,1.7453292519943295e-08,1.7453292519943295e-08,0.0,0.12449848632812499,-0.105344873046875,9.600748657226562
25295380000,-1.7453292519943295e-08,0.0,-1.7453292519943295e-08,0.11013327636718749,-0.1005564697265625,9.595960253906249
25296376000,0.0,0.0,0.0,0.105344873046875,-0.09576806640624999,9.610325463867188
25297371000,0.0,0.0,0.0,0.105344873046875,-0.1005564697265625,9.600748657226562
25298365000,0.0,0.0,0.0,0.1005564697265625,-0.0909796630859375,9.6151138671875
25299360000,0.0,0.0,0.0,0.08140285644531249,-0.09576806640624999,9.648632690429688
25300356000,-1.7453292519943295e-08,0.0,0.0,0.0430956298828125,-0.1149216796875,9.672574707031249
25301352000,0.0,0.0,0.0,0.0430956298828125,-0.1149216796875,9.672574707031249
25302347000,0.0,0.0,0.0,0.028730419921875,-0.13407529296874998,9.6917283203125
25303343000,0.0,0.0,1.7453292519943295e-08,0.0143652099609375,-0.13407529296874998,9.682151513671874
25304339000,0.0,0.0,0.0,-0.01915361328125,-0.1292868896484375,9.6917283203125
25305333000,-1.7453292519943295e-08,-1.7453292519943295e-08,0.0,-0.047884033203124995,-0.15322890625,9.720458740234374
25306328000,0.0,1.7453292519943295e-08,0.0,-0.06703764648437499,-0.17238251953125,9.753977563476562
25307324000,0.0,-1.7453292519943295e-08,0.0,-0.08140285644531249,-0.1867477294921875,9.744400756835937
25308319000,-1.7453292519943295e-08,0.0,0.0,-0.05746083984375,-0.181959326171875,9.749189160156249
25309316000,3.490658503988659e-08,0.0,0.0,-0.0526724365234375,-0.181959326171875,9.715670336914062
25310311000,-1.7453292519943295e-08,0.0,0.0,-0.028730419921875,-0.143652099609375,9.677363110351562
25311304000,1.7453292519943295e-08,0.0,0.0,0.028730419921875,-0.1388636962890625,9.624690673828125
25312300000,0.0,0.0,1.7453292519943295e-08,0.047884033203124995,-0.16759411621093748,9.595960253906249
25313295000,1.7453292519943295e-08,0.0,0.0,0.05746083984375,-0.1771709228515625,9.6151138671875
25314291000,0.0,0.0,0.0,0.06703764648437499,-0.19153613281249998,9.629479077148437
25315287000,-1.7453292519943295e-08,0.0,0.0,0.0526724365234375,-0.2059013427734375,9.639055883789062
25316283000,0.0,0.0,0.0,0.0383072265625,-0.239420166015625,9.629479077148437
25317276000,-1.7453292519943295e-08,0.0,0.0,0.0383072265625,-0.239420166015625,9.629479077148437
25318272000,0.0,0.0,0.0,0.028730419921875,-0.2346317626953125,9.595960253906249
25319267000,0.0,0.0,0.0,0.023942016601562498,-0.22505495605468748,9.576806640625
25320263000,-1.7453292519943295e-08,0.0,0.0,0.0,-0.22505495605468748,9.581595043945311
25321259000,0.0,0.0,0.0,-0.0047884033203125,-0.21068974609375,9.581595043945311
25322255000,0.0,0.0,1.7453292519943295e-08,-0.0143652099609375,-0.16759411621093748,9.586383447265625
25323251000,-1.7453292519943295e-08,0.0,0.0,-0.023942016601562498,-0.1388636962890625,9.610325463867188
25324244000,0.0,0.0,0.0,-0.033518823242187495,-0.0909796630859375,9.605537060546874
25325240000,0.0,0.0,0.0,-0.033518823242187495,-0.033518823242187495,9.576806640625
25326236000,0.0,0.0,0.0,-0.01915361328125,-0.009576806640625,9.552864624023437
25327231000,0.0,0.0,0.0,-0.009576806640625,0.0143652099609375,9.528922607421874
25328227000,0.0,0.0,0.0,0.0,0.0383072265625,9.548076220703125
25329224000,1.7453292519943295e-08,0.0,0.0,0.0143652099609375,0.0526724365234375,9.562441430664062
25330218000,-1.7453292519943295e-08,0.0,0.0,0.047884033203124995,0.0718260498046875,9.567229833984374
25331214000,1.7453292519943295e-08,0.0,0.0,0.05746083984375,0.033518823242187495,9.572018237304688
25332210000,0.0,0.0,0.0,0.0526724365234375,0.0,9.600748657226562
25333205000,-1.7453292519943295e-08,0.0,0.0,0.047884033203124995,-0.0047884033203125,9.643844287109374
25334201000,1.7453292519943295e-08,1.7453292519943295e-08,1.7453292519943295e-08,0.028730419921875,-0.0526724365234375,9.65342109375
25335196000,0.0,0.0,0.0,0.033518823242187495,-0.028730419921875,9.629479077148437
25336192000,0.0,0.0,0.0,0.047884033203124995,-0.009576806640625,9.586383447265625
25337188000,-1.7453292519943295e-08,0.0,1.7453292519943295e-08,0.047884033203124995,-0.05746083984375,9.548076220703125
25338185000,0.0,0.0,0.0,0.047884033203124995,-0.076614453125,9.552864624023437
25339180000,-1.7453292519943295e-08,0.0,0.0,0.0526724365234375,-0.047884033203124995,9.552864624023437
25340175000,-1.7453292519943295e-08,0.0,0.0,0.0526724365234375,-0.062249243164062495,9.572018237304688
25341170000,0.0,0.0,0.0,0.047884033203124995,-0.06703764648437499,9.576806640625
25342165000,-1.7453292519943295e-08,0.0,0.0,0.0383072265625,-0.076614453125,9.572018237304688
25343160000,0.0,0.0,0.0,0.033518823242187495,-0.06703764648437499,9.586383447265625
25344158000,0.0,0.0,0.0,0.033518823242187495,-0.06703764648437499,9.586383447265625
25345152000,-1.7453292519943295e-08,0.0,0.0,0.028730419921875,-0.086191259765625,9.586383447265625
25346148000,0.0,0.0,0.0,0.01915361328125,-0.1149216796875,9.586383447265625
25347143000,0.0,0.0,0.0,0.028730419921875,-0.1197100830078125,9.595960253906249
25348138000,0.0,0.0,0.0,0.033518823242187495,-0.1388636962890625,9.581595043945311
25349134000,1.7453292519943295e-08,0.0,0.0,0.028730419921875,-0.15322890625,9.586383447265625
25350129000,0.0,0.0,0.0,0.0383072265625,-0.1388636962890625,9.6151138671875
25351125000,1.7453292519943295e-08,0.0,0.0,0.047884033203124995,-0.143652099609375,9.643844287109374
25352121000,0.0,0.0,0.0,0.0430956298828125,-0.17238251953125,9.672574707031249
25353116000,0.0,0.0,0.0,0.0526724365234375,-0.19153613281249998,9.686939916992188
25354113000,0.0,0.0,0.0,0.062249243164062495,-0.19632453613281248,9.677363110351562
25355107000,0.0,0.0,0.0,0.05746083984375,-0.229843359375,9.667786303710937
25356105000,0.0,0.0,0.0,0.0383072265625,-0.22505495605468748,9.677363110351562
25357098000,0.0,0.0,0.0,0.028730419921875,-0.21068974609375,9.686939916992188
25358094000,0.0,0.0,0.0,0.0143652099609375,-0.22505495605468748,9.686939916992188
25359091000,0.0,0.0,0.0,0.0047884033203125,-0.21068974609375,9.672574707031249
25360085000,-1.7453292519943295e-08,0.0,0.0,-0.009576806640625,-0.1771709228515625,9.682151513671874
25361080000,0.0,0.0,0.0,-0.0047884033203125,-0.16759411621093748,9.706093530273437
25362075000,-1.7453292519943295e-08,0.0,0.0,-0.023942016601562498,-0.17238251953125,9.725247143554688
25363071000,0.0,1.7453292519943295e-08,-1.7453292519943295e-08,-0.028730419921875,-0.181959326171875,9.773131176757811
25364068000,-1.7453292519943295e-08,0.0,0.0,-0.033518823242187495,-0.181959326171875,9.758765966796874
25365062000,0.0,0.0,0.0,-0.047884033203124995,-0.17238251953125,9.739612353515625
25366058000,1.7453292519943295e-08,0.0,0.0,-0.047884033203124995,-0.1580173095703125,9.739612353515625
25367052000,0.0,-1.7453292519943295e-08,0.0,-0.047884033203124995,-0.1580173095703125,9.739612353515625
25368048000,0.0,0.0,0.0,-0.047884033203124995,-0.143652099609375,9.701305126953125
25369044000,1.7453292519943295e-08,0.0,0.0,-0.05746083984375,-0.1388636962890625,9.682151513671874
25370039000,0.0,0.0,0.0,-0.047884033203124995,-0.15322890625,9.677363110351562
25371035000,1.7453292519943295e-08,0.0,0.0,-0.0430956298828125,-0.1580173095703125,9.634267480468749
25372031000,-1.7453292519943295e-08,0.0,1.7453292519943295e-08,-0.028730419921875,-0.1292868896484375,9.6151138671875
25373025000,0.0,1.7453292519943295e-08,0.0,-0.0047884033203125,-0.1005564697265625,9.576806640625
25374021000,0.0,0.0,1.7453292519943295e-08,0.028730419921875,-0.05746083984375,9.509768994140625
25375016000,0.0,0.0,0.0,0.076614453125,-0.0383072265625,9.4618849609375
25376012000,0.0,0.0,0.0,0.11013327636718749,-0.033518823242187495,9.452308154296874
25377008000,-1.7453292519943295e-08,0.0,0.0,0.1292868896484375,-0.033518823242187495,9.457096557617186
25378004000,0.0,0.0,0.0,0.13407529296874998,-0.0430956298828125,9.471461767578125
25378999000,0.0,0.0,0.0,0.1388636962890625,-0.05746083984375,9.490615380859374
25379993000,-1.7453292519943295e-08,0.0,0.0,0.12449848632812499,-0.076614453125,9.514557397460937
25380989000,0.0,0.0,0.0,0.105344873046875,-0.105344873046875,9.548076220703125
25381985000,0.0,0.0,-1.7453292519943295e-08,0.08140285644531249,-0.13407529296874998,9.581595043945311
25382980000,0.0,0.0,0.0,0.0526724365234375,-0.1580173095703125,9.6151138671875
25383976000,0.0,0.0,0.0,0.01915361328125,-0.19632453613281248,9.639055883789062
25384972000,-1.7453292519943295e-08,0.0,0.0,0.009576806640625,-0.19632453613281248,9.662997900390625
25385966000,1.7453292519943295e-08,0.0,0.0,0.009576806640625,-0.16280571289062498,9.648632690429688
25386962000,0.0,0.0,0.0,0.033518823242187495,-0.1292868896484375,9.624690673828125
25387957000,0.0,0.0,0.0,0.05746083984375,-0.105344873046875,9.600748657226562
25388953000,1.7453292519943295e-08,0.0,0.0,0.05746083984375,-0.105344873046875,9.600748657226562
25389949000,0.0,0.0,0.0,0.0909796630859375,-0.0909796630859375,9.567229833984374
25390944000,0.0,0.0,0.0,0.105344873046875,-0.086191259765625,9.519345800781249
25391939000,0.0,0.0,0.0,0.12449848632812499,-0.08140285644531249,9.509768994140625
25392936000,0.0,0.0,0.0,0.13407529296874998,-0.0718260498046875,9.514557397460937
25393930000,-1.7453292519943295e-08,0.0,0.0,0.1580173095703125,-0.06703764648437499,9.5001921875
25394926000,-1.7453292519943295e-08,0.0,0.0,0.16759411621093748,-0.0383072265625,9.471461767578125
25395921000,1.7453292519943295e-08,0.0,0.0,0.181959326171875,-0.0430956298828125,9.457096557617186
25396917000,-1.7453292519943295e-08,0.0,0.0,0.201112939453125,-0.0430956298828125,9.447519750976562
25397912000,0.0,0.0,0.0,0.181959326171875,-0.062249243164062495,9.433154541015625
25398913000,0.0,0.0,0.0,0.15322890625,-0.076614453125,9.457096557617186
25399904000,0.0,0.0,0.0,0.13407529296874998,-0.1005564697265625,9.481038574218749
25400899000,0.0,0.0,0.0,0.086191259765625,-0.15322890625,9.485826977539062
25401895000,0.0,0.0,0.0,0.0430956298828125,-0.19632453613281248,9.5384994140625
25402891000,0.0,0.0,0.0,0.028730419921875,-0.19632453613281248,9.600748657226562
25403887000,0.0,-1.7453292519943295e-08,0.0,0.0,-0.229843359375,9.643844287109374
25404882000,0.0,0.0,0.0,-0.01915361328125,-0.2346317626953125,9.6917283203125
25405878000,1.7453292519943295e-08,0.0,0.0,-0.009576806640625,-0.19153613281249998,9.701305126953125
25406874000,-1.7453292519943295e-08,0.0,0.0,0.0,-0.1867477294921875,9.706093530273437
25407870000,1.7453292519943295e-08,0.0,0.0,0.0,-0.201112939453125,9.710881933593749
25408865000,0.0,0.0,0.0,-0.0047884033203125,-0.2059013427734375,9.720458740234374
25409861000,0.0,0.0,0.0,-0.0047884033203125,-0.21068974609375,9.763554370117188
25410857000,1.7453292519943295e-08,0.0,0.0,-0.0143652099609375,-0.239420166015625,9.787496386718749
25411853000,-1.7453292519943295e-08,0.0,0.0,-0.01915361328125,-0.2442085693359375,9.787496386718749
25412848000,1.7453292519943295e-08,0.0,0.0,-0.0143652099609375,-0.258573779296875,9.773131176757811
25413844000,0.0,-1.7453292519943295e-08,0.0,-0.0383072265625,-0.277727392578125,9.758765966796874
25414840000,-1.7453292519943295e-08,0.0,0.0,-0.06703764648437499,-0.27293898925781246,9.758765966796874
25415835000,0.0,0.0,0.0,-0.08140285644531249,-0.27293898925781246,9.7683427734375
25416831000,-1.7453292519943295e-08,0.0,0.0,-0.086191259765625,-0.26336218261718747,9.773131176757811
25417826000,0.0,1.7453292519943295e-08,0.0,-0.0909796630859375,-0.258573779296875,9.7683427734375
25418822000,-1.7453292519943295e-08,0.0,0.0,-0.1197100830078125,-0.258573779296875,9.777919580078125
25419818000,0.0,1.7453292519943295e-08,0.0,-0.1388636962890625,-0.239420166015625,9.80665
25420814000,-1.7453292519943295e-08,0.0,0.0,-0.13407529296874998,-0.21068974609375,9.792284790039062
25421809000,0.0,0.0,0.0,-0.1149216796875,-0.1771709228515625,9.7683427734375
25422804000,0.0,0.0,0.0,-0.1149216796875,-0.1771709228515625,9.7683427734375
25423799000,0.0,-1.7453292519943295e-08,0.0,-0.105344873046875,-0.1580173095703125,9.753977563476562
25424795000,0.0,0.0,0.0,-0.0909796630859375,-0.143652099609375,9.730035546875
