#timestamp [ns],w_RS_S_x [rad s^-1],w_RS_S_y [rad s^-1],w_RS_S_z [rad s^-1],a_RS_S_x [m s^-2],a_RS_S_y [m s^-2],a_RS_S_z [m s^-2]
46577479000,1.7453292519943295e-08,0.0,-1.7453292519943295e-08,-0.1484405029296875,-0.1005564697265625,9.773131176757811
46578473000,1.7453292519943295e-08,-1.7453292519943295e-08,-1.7453292519943295e-08,-0.16759411621093748,-0.086191259765625,9.749189160156249
46579468000,1.7453292519943295e-08,-1.7453292519943295e-08,0.0,-0.16759411621093748,-0.0526724365234375,9.739612353515625
46580463000,1.7453292519943295e-08,-1.7453292519943295e-08,0.0,-0.16759411621093748,-0.0143652099609375,9.730035546875
46581458000,1.7453292519943295e-08,-1.7453292519943295e-08,1.7453292519943295e-08,-0.16280571289062498,0.023942016601562498,9.706093530273437
46582454000,0.0,0.0,3.490658503988659e-08,-0.1484405029296875,0.0718260498046875,9.706093530273437
46583450000,-1.7453292519943295e-08,0.0,3.490658503988659e-08,-0.1292868896484375,0.086191259765625,9.710881933593749
46584444000,-5.235987755982989e-08,1.7453292519943295e-08,5.235987755982989e-08,-0.1197100830078125,0.08140285644531249,9.734823950195311
46585439000,-3.490658503988659e-08,1.7453292519943295e-08,5.235987755982989e-08,-0.1005564697265625,0.0718260498046875,9.749189160156249
46586434000,-3.490658503988659e-08,0.0,5.235987755982989e-08,-0.0909796630859375,0.047884033203124995,9.753977563476562
46587428000,-3.490658503988659e-08,0.0,1.7453292519943295e-08,-0.105344873046875,0.01915361328125,9.749189160156249
46588424000,-1.7453292519943295e-08,1.7453292519943295e-08,-1.7453292519943295e-08,-0.105344873046875,-0.009576806640625,9.744400756835937
46589420000,0.0,0.0,-1.7453292519943295e-08,-0.1005564697265625,-0.0526724365234375,9.744400756835937
46590415000,0.0,0.0,-3.490658503988659e-08,-0.105344873046875,-0.105344873046875,9.763554370117188
46591409000,0.0,-1.7453292519943295e-08,-1.7453292519943295e-08,-0.1149216796875,-0.15322890625,9.777919580078125
46592404000,0.0,0.0,-1.7453292519943295e-08,-0.1005564697265625,-0.19632453613281248,9.801861596679688
46593399000,1.7453292519943295e-08,0.0,0.0,-0.1005564697265625,-0.229843359375,9.811438403320311
46594394000,3.490658503988659e-08,0.0,0.0,-0.105344873046875,-0.26815058593749996,9.82580361328125
46595390000,3.490658503988659e-08,0.0,-1.7453292519943295e-08,-0.11013327636718749,-0.277727392578125,9.840168823242188
46596385000,1.7453292519943295e-08,0.0,-1.7453292519943295e-08,-0.11013327636718749,-0.27293898925781246,9.835380419921874
46597380000,3.490658503988659e-08,-1.7453292519943295e-08,-3.490658503988659e-08,-0.105344873046875,-0.22505495605468748,9.835380419921874
46598375000,1.7453292519943295e-08,-1.7453292519943295e-08,-5.235987755982989e-08,-0.1005564697265625,-0.1867477294921875,9.821015209960937
46599369000,1.7453292519943295e-08,0.0,-5.235987755982989e-08,-0.09576806640624999,-0.1388636962890625,9.80665
46600364000,0.0,-1.7453292519943295e-08,-1.7453292519943295e-08,-0.086191259765625,-0.0718260498046875,9.787496386718749
46601363000,0.0,0.0,0.0,-0.08140285644531249,0.0143652099609375,9.773131176757811
46602355000,0.0,0.0,1.7453292519943295e-08,-0.06703764648437499,0.08140285644531249,9.7683427734375
46603350000,-1.7453292519943295e-08,0.0,3.490658503988659e-08,-0.076614453125,0.1149216796875,9.763554370117188
46604346000,-1.7453292519943295e-08,0.0,1.7453292519943295e-08,-0.076614453125,0.1292868896484375,9.773131176757811
46605340000,-1.7453292519943295e-08,0.0,1.7453292519943295e-08,-0.062249243164062495,0.143652099609375,9.782707983398437
46606335000,-3.490658503988659e-08,1.7453292519943295e-08,0.0,-0.0526724365234375,0.15322890625,9.782707983398437
46607332000,-5.235987755982989e-08,1.7453292519943295e-08,1.7453292519943295e-08,-0.0526724365234375,0.15322890625,9.782707983398437
46608327000,-3.490658503988659e-08,1.7453292519943295e-08,3.490658503988659e-08,-0.047884033203124995,0.1292868896484375,9.782707983398437
46609321000,-3.490658503988659e-08,1.7453292519943295e-08,3.490658503988659e-08,-0.023942016601562498,0.06703764648437499,9.787496386718749
46610316000,0.0,1.7453292519943295e-08,-1.7453292519943295e-08,-0.023942016601562498,-0.023942016601562498,9.777919580078125
46611312000,0.0,0.0,-5.235987755982989e-08,-0.047884033203124995,-0.11013327636718749,9.80665
46612306000,1.7453292519943295e-08,0.0,-6.981317007977318e-08,-0.086191259765625,-0.15322890625,9.830592016601562
46613301000,1.7453292519943295e-08,0.0,-3.490658503988659e-08,-0.0718260498046875,-0.19632453613281248,9.82580361328125
46614299000,1.7453292519943295e-08,0.0,1.7453292519943295e-08,-0.0430956298828125,-0.1484405029296875,9.830592016601562
46615294000,3.490658503988659e-08,-1.7453292519943295e-08,6.981317007977318e-08,-0.033518823242187495,-0.0909796630859375,9.840168823242188
46616288000,0.0,-1.7453292519943295e-08,8.726646259971647e-08,-0.062249243164062495,-0.08140285644531249,9.854534033203125
46617283000,0.0,0.0,6.981317007977318e-08,-0.08140285644531249,-0.09576806640624999,9.854534033203125
46618278000,0.0,0.0,3.490658503988659e-08,-0.0718260498046875,-0.11013327636718749,9.835380419921874
46619273000,0.0,1.7453292519943295e-08,-1.7453292519943295e-08,-0.0383072265625,-0.1149216796875,9.811438403320311
46620270000,0.0,0.0,-1.7453292519943295e-08,-0.0143652099609375,-0.1005564697265625,9.801861596679688
46621265000,-1.7453292519943295e-08,0.0,-1.7453292519943295e-08,0.0047884033203125,-0.0718260498046875,9.801861596679688
46622260000,-1.7453292519943295e-08,0.0,-1.7453292519943295e-08,0.0383072265625,-0.0718260498046875,9.787496386718749
46623255000,0.0,-1.7453292519943295e-08,0.0,0.05746083984375,-0.0383072265625,9.777919580078125
46624251000,0.0,1.7453292519943295e-08,-1.7453292519943295e-08,0.028730419921875,0.009576806640625,9.816226806640625
46625244000,1.7453292519943295e-08,-1.7453292519943295e-08,1.7453292519943295e-08,0.009576806640625,-0.0047884033203125,9.801861596679688
46626242000,-3.490658503988659e-08,0.0,3.490658503988659e-08,0.0,0.0430956298828125,9.8449572265625
46627236000,3.490658503988659e-08,0.0,3.490658503988659e-08,0.0143652099609375,0.05746083984375,9.830592016601562
46628231000,0.0,0.0,0.0,0.05746083984375,0.09576806640624999,9.835380419921874
46629226000,1.7453292519943295e-08,0.0,-3.490658503988659e-08,0.086191259765625,0.13407529296874998,9.86411083984375
46630221000,0.0,0.0,-3.490658503988659e-08,0.1292868896484375,0.1484405029296875,9.82580361328125
46631216000,-1.7453292519943295e-08,0.0,-5.235987755982989e-08,0.19632453613281248,0.16759411621093748,9.792284790039062
46632213000,1.7453292519943295e-08,-1.7453292519943295e-08,-3.490658503988659e-08,0.26336218261718747,0.15322890625,9.720458740234374
46633207000,0.0,0.0,-3.490658503988659e-08,0.28730419921875,0.17238251953125,9.677363110351562
46634203000,3.490658503988659e-08,-1.7453292519943295e-08,-1.7453292519943295e-08,0.3064578125,0.2154781494140625,9.686939916992188
46635197000,-1.7453292519943295e-08,0.0,1.7453292519943295e-08,0.2920926025390625,0.22505495605468748,9.634267480468749
46636191000,0.0,0.0,3.490658503988659e-08,0.258573779296875,0.2346317626953125,9.648632690429688
46637186000,1.7453292519943295e-08,0.0,3.490658503988659e-08,0.24899697265624998,0.22505495605468748,9.667786303710937
46638181000,0.0,0.0,1.7453292519943295e-08,0.229843359375,0.19153613281249998,9.658209497070311
46639179000,0.0,0.0,1.7453292519943295e-08,0.239420166015625,0.1771709228515625,9.682151513671874
46640173000,-3.490658503988659e-08,-1.7453292519943295e-08,1.7453292519943295e-08,0.239420166015625,0.1771709228515625,9.682151513671874
46641167000,-3.490658503988659e-08,1.7453292519943295e-08,1.7453292519943295e-08,0.2154781494140625,0.1484405029296875,9.6917283203125
46642162000,1.7453292519943295e-08,0.0,0.0,0.22505495605468748,0.1580173095703125,9.677363110351562
46643158000,0.0,0.0,0.0,0.27293898925781246,0.181959326171875,9.701305126953125
46644152000,1.7453292519943295e-08,0.0,3.490658503988659e-08,0.28730419921875,0.1292868896484375,9.701305126953125
46645149000,1.7453292519943295e-08,-1.7453292519943295e-08,5.235987755982989e-08,0.2825157958984375,0.076614453125,9.734823950195311
46646144000,3.490658503988659e-08,1.7453292519943295e-08,6.981317007977318e-08,0.3064578125,0.1005564697265625,9.753977563476562
46647139000,1.7453292519943295e-08,-1.7453292519943295e-08,6.981317007977318e-08,0.32082302246093747,0.0909796630859375,9.749189160156249
46648134000,0.0,1.7453292519943295e-08,3.490658503988659e-08,0.2920926025390625,0.06703764648437499,9.730035546875
46649129000,0.0,0.0,1.7453292519943295e-08,0.2825157958984375,0.0430956298828125,9.734823950195311
46650124000,0.0,-1.7453292519943295e-08,-1.7453292519943295e-08,0.2346317626953125,0.0526724365234375,9.739612353515625
46651120000,-1.7453292519943295e-08,0.0,-6.981317007977318e-08,0.17238251953125,0.01915361328125,9.787496386718749
46652115000,-1.7453292519943295e-08,0.0,-8.726646259971647e-08,0.1197100830078125,-0.028730419921875,9.821015209960937
46653111000,-1.7453292519943295e-08,1.7453292519943295e-08,-8.726646259971647e-08,0.1149216796875,-0.033518823242187495,9.801861596679688
46654105000,0.0,0.0,-6.981317007977318e-08,0.086191259765625,-0.0430956298828125,9.777919580078125
46655099000,0.0,0.0,-6.981317007977318e-08,0.023942016601562498,-0.009576806640625,9.787496386718749
46656094000,-1.7453292519943295e-08,0.0,-6.981317007977318e-08,-0.028730419921875,0.009576806640625,9.835380419921874
46657090000,0.0,-1.7453292519943295e-08,-6.981317007977318e-08,-0.076614453125,-0.01915361328125,9.8449572265625
46658085000,0.0,1.7453292519943295e-08,-1.7453292519943295e-08,-0.1197100830078125,-0.1149216796875,9.840168823242188
46659080000,1.7453292519943295e-08,-3.490658503988659e-08,0.0,-0.201112939453125,-0.17238251953125,9.840168823242188
46660074000,-1.7453292519943295e-08,0.0,1.7453292519943295e-08,-0.26815058593749996,-0.19632453613281248,9.868899243164062
46661069000,1.7453292519943295e-08,0.0,3.490658503988659e-08,-0.2920926025390625,-0.26336218261718747,9.878476049804688
46662064000,1.7453292519943295e-08,0.0,5.235987755982989e-08,-0.28730419921875,-0.33039982910156246,9.878476049804688
46663059000,-1.7453292519943295e-08,0.0,5.235987755982989e-08,-0.28730419921875,-0.36391865234375,9.878476049804688
46664055000,-1.7453292519943295e-08,0.0,1.7453292519943295e-08,-0.296881005859375,-0.4070142822265625,9.86411083984375
46665050000,0.0,0.0,1.7453292519943295e-08,-0.3112462158203125,-0.411802685546875,9.859322436523437
46666045000,0.0,1.7453292519943295e-08,-1.7453292519943295e-08,-0.32082302246093747,-0.3687070556640625,9.883264453125
46667040000,-1.7453292519943295e-08,0.0,-1.7453292519943295e-08,-0.2920926025390625,-0.3687070556640625,9.883264453125
46668035000,0.0,0.0,0.0,-0.26815058593749996,-0.3495534423828125,9.883264453125
46669030000,0.0,0.0,-1.7453292519943295e-08,-0.26815058593749996,-0.3495534423828125,9.883264453125
46670025000,1.7453292519943295e-08,0.0,0.0,-0.22505495605468748,-0.2920926025390625,9.892841259765625
46671020000,1.7453292519943295e-08,0.0,1.7453292519943295e-08,-0.16280571289062498,-0.26336218261718747,9.854534033203125
46672015000,-1.7453292519943295e-08,0.0,1.7453292519943295e-08,-0.1292868896484375,-0.26336218261718747,9.811438403320311
46673010000,1.7453292519943295e-08,0.0,1.7453292519943295e-08,-0.1005564697265625,-0.239420166015625,9.782707983398437
46674005000,0.0,0.0,1.7453292519943295e-08,-0.076614453125,-0.2059013427734375,9.7683427734375
46675000000,0.0,0.0,0.0,-0.062249243164062495,-0.15322890625,9.753977563476562
46675995000,0.0,0.0,0.0,-0.05746083984375,-0.1197100830078125,9.758765966796874
46676990000,0.0,0.0,0.0,-0.076614453125,-0.1388636962890625,9.763554370117188
46677985000,0.0,-1.7453292519943295e-08,0.0,-0.09576806640624999,-0.13407529296874998,9.792284790039062
46678981000,0.0,0.0,0.0,-0.11013327636718749,-0.16280571289062498,9.830592016601562
46679975000,0.0,0.0,0.0,-0.1197100830078125,-0.2346317626953125,9.840168823242188
46680969000,-1.7453292519943295e-08,0.0,0.0,-0.11013327636718749,-0.2537853759765625,9.859322436523437
46681965000,1.7453292519943295e-08,0.0,0.0,-0.1197100830078125,-0.277727392578125,9.8449572265625
46682960000,-1.7453292519943295e-08,0.0,0.0,-0.12449848632812499,-0.2920926025390625,9.830592016601562
46683955000,0.0,0.0,0.0,-0.105344873046875,-0.26815058593749996,9.835380419921874
46684951000,1.7453292519943295e-08,-1.7453292519943295e-08,1.7453292519943295e-08,-0.086191259765625,-0.22026655273437498,9.82580361328125
46685944000,0.0,1.7453292519943295e-08,1.7453292519943295e-08,-0.062249243164062495,-0.1484405029296875,9.811438403320311
46686939000,1.7453292519943295e-08,0.0,1.7453292519943295e-08,-0.033518823242187495,-0.1197100830078125,9.792284790039062
46687934000,0.0,0.0,1.7453292519943295e-08,0.0,-0.0909796630859375,9.777919580078125
46688929000,0.0,0.0,3.490658503988659e-08,0.033518823242187495,-0.1197100830078125,9.763554370117188
46689924000,0.0,0.0,3.490658503988659e-08,0.023942016601562498,-0.1580173095703125,9.763554370117188
46690919000,-1.7453292519943295e-08,0.0,1.7453292519943295e-08,-0.01915361328125,-0.19632453613281248,9.7683427734375
46691914000,0.0,0.0,0.0,-0.076614453125,-0.24899697265624998,9.777919580078125
46692909000,-1.7453292519943295e-08,1.7453292519943295e-08,-1.7453292519943295e-08,-0.105344873046875,-0.26815058593749996,9.801861596679688
46693905000,-1.7453292519943295e-08,1.7453292519943295e-08,-1.7453292519943295e-08,-0.105344873046875,-0.26815058593749996,9.801861596679688
46694899000,-1.7453292519943295e-08,0.0,-3.490658503988659e-08,-0.1197100830078125,-0.2825157958984375,9.821015209960937
46695894000,0.0,0.0,-3.490658503988659e-08,-0.1484405029296875,-0.277727392578125,9.797073193359374
46696890000,0.0,0.0,-1.7453292519943295e-08,-0.16759411621093748,-0.2346317626953125,9.773131176757811
46697883000,0.0,0.0,0.0,-0.1580173095703125,-0.19632453613281248,9.758765966796874
46698878000,1.7453292519943295e-08,-1.7453292519943295e-08,0.0,-0.13407529296874998,-0.1771709228515625,9.749189160156249
46699875000,1.7453292519943295e-08,-1.7453292519943295e-08,1.7453292519943295e-08,-0.1149216796875,-0.1484405029296875,9.744400756835937
46700869000,3.490658503988659e-08,-1.7453292519943295e-08,3.490658503988659e-08,-0.0909796630859375,-0.076614453125,9.749189160156249
46701864000,1.7453292519943295e-08,-1.7453292519943295e-08,1.7453292519943295e-08,-0.076614453125,-0.033518823242187495,9.787496386718749
46702859000,0.0,0.0,1.7453292519943295e-08,-0.062249243164062495,-0.05746083984375,9.830592016601562
46703854000,0.0,0.0,1.7453292519943295e-08,-0.06703764648437499,-0.06703764648437499,9.8449572265625
46704848000,-1.7453292519943295e-08,1.7453292519943295e-08,0.0,-0.06703764648437499,0.0,9.8449572265625
46705843000,0.0,0.0,-1.7453292519943295e-08,-0.0526724365234375,0.023942016601562498,9.854534033203125
46706840000,-1.7453292519943295e-08,1.7453292519943295e-08,0.0,-0.05746083984375,0.023942016601562498,9.854534033203125
46707835000,0.0,0.0,0.0,-0.0526724365234375,0.023942016601562498,9.849745629882811
46708829000,0.0,0.0,0.0,-0.06703764648437499,-0.0047884033203125,9.830592016601562
46709824000,-1.7453292519943295e-08,0.0,0.0,-0.06703764648437499,-0.028730419921875,9.816226806640625
46710819000,1.7453292519943295e-08,0.0,0.0,-0.062249243164062495,-0.047884033203124995,9.787496386718749
46711814000,0.0,-1.7453292519943295e-08,0.0,-0.06703764648437499,-0.062249243164062495,9.782707983398437
46712809000,0.0,0.0,0.0,-0.0383072265625,-0.06703764648437499,9.782707983398437
46713805000,1.7453292519943295e-08,-1.7453292519943295e-08,0.0,-0.01915361328125,-0.047884033203124995,9.7683427734375
46714802000,1.7453292519943295e-08,0.0,0.0,0.0,-0.0143652099609375,9.773131176757811
46715795000,0.0,0.0,0.0,0.028730419921875,0.0143652099609375,9.758765966796874
46716790000,0.0,1.7453292519943295e-08,0.0,0.062249243164062495,0.0526724365234375,9.753977563476562
46717785000,0.0,1.7453292519943295e-08,0.0,0.06703764648437499,0.076614453125,9.749189160156249
46718782000,-1.7453292519943295e-08,1.7453292519943295e-08,0.0,0.076614453125,0.0909796630859375,9.758765966796874
46719775000,0.0,1.7453292519943295e-08,0.0,0.047884033203124995,0.0909796630859375,9.763554370117188
46720770000,0.0,0.0,0.0,0.028730419921875,0.0909796630859375,9.753977563476562
46721767000,-1.7453292519943295e-08,1.7453292519943295e-08,0.0,0.0,0.0909796630859375,9.763554370117188
46722760000,1.7453292519943295e-08,-1.7453292519943295e-08,1.7453292519943295e-08,0.0,0.0909796630859375,9.763554370117188
46723755000,-1.7453292519943295e-08,0.0,0.0,-0.01915361328125,0.0430956298828125,9.773131176757811
46724751000,1.7453292519943295e-08,-1.7453292519943295e-08,0.0,-0.0430956298828125,0.0047884033203125,9.749189160156249
46725746000,0.0,0.0,1.7453292519943295e-08,-0.05746083984375,-0.009576806640625,9.758765966796874
46726741000,1.7453292519943295e-08,0.0,-1.7453292519943295e-08,-0.023942016601562498,-0.08140285644531249,9.734823950195311
46727738000,0.0,0.0,-1.7453292519943295e-08,0.0,-0.11013327636718749,9.725247143554688
46728730000,0.0,0.0,0.0,0.033518823242187495,-0.09576806640624999,9.744400756835937
46729727000,1.7453292519943295e-08,0.0,-1.7453292519943295e-08,0.028730419921875,-0.1005564697265625,9.734823950195311
46730720000,0.0,0.0,-1.7453292519943295e-08,0.028730419921875,-0.1388636962890625,9.739612353515625
46731715000,0.0,0.0,0.0,0.033518823242187495,-0.105344873046875,9.734823950195311
46732710000,1.7453292519943295e-08,0.0,0.0,0.01915361328125,-0.105344873046875,9.6917283203125
46733705000,-1.7453292519943295e-08,0.0,0.0,0.0047884033203125,-0.13407529296874998,9.701305126953125
46734701000,0.0,1.7453292519943295e-08,1.7453292519943295e-08,-0.0047884033203125,-0.11013327636718749,9.734823950195311
46735695000,0.0,0.0,0.0,-0.033518823242187495,-0.1197100830078125,9.758765966796874
46736690000,-1.7453292519943295e-08,1.7453292519943295e-08,1.7453292519943295e-08,-0.062249243164062495,-0.1197100830078125,9.797073193359374
46737685000,1.7453292519943295e-08,0.0,0.0,-0.09576806640624999,-0.11013327636718749,9.821015209960937
46738681000,-1.7453292519943295e-08,1.7453292519943295e-08,0.0,-0.1149216796875,-0.1005564697265625,9.835380419921874
46739676000,0.0,0.0,1.7453292519943295e-08,-0.13407529296874998,-0.11013327636718749,9.86411083984375
46740670000,1.7453292519943295e-08,0.0,0.0,-0.16280571289062498,-0.1149216796875,9.883264453125
46741665000,0.0,-1.7453292519943295e-08,0.0,-0.1771709228515625,-0.11013327636718749,9.897629663085937
46742660000,0.0,0.0,0.0,-0.16759411621093748,-0.11013327636718749,9.911994873046874
46743657000,1.7453292519943295e-08,0.0,1.7453292519943295e-08,-0.143652099609375,-0.1292868896484375,9.868899243164062
46744651000,0.0,-1.7453292519943295e-08,0.0,-0.1149216796875,-0.1149216796875,9.830592016601562
46745646000,1.7453292519943295e-08,0.0,0.0,-0.1005564697265625,-0.105344873046875,9.821015209960937
46746641000,0.0,-1.7453292519943295e-08,0.0,-0.08140285644531249,-0.09576806640624999,9.777919580078125
46747636000,0.0,0.0,-1.7453292519943295e-08,-0.06703764648437499,-0.0718260498046875,9.763554370117188
46748631000,0.0,0.0,0.0,-0.0526724365234375,-0.062249243164062495,9.777919580078125
46749626000,0.0,1.7453292519943295e-08,-1.7453292519943295e-08,-0.033518823242187495,-0.076614453125,9.753977563476562
46750621000,0.0,0.0,0.0,-0.01915361328125,-0.11013327636718749,9.744400756835937
46751616000,0.0,1.7453292519943295e-08,0.0,-0.028730419921875,-0.11013327636718749,9.739612353515625
46752611000,0.0,0.0,0.0,-0.028730419921875,-0.11013327636718749,9.739612353515625
46753606000,0.0,0.0,0.0,-0.0430956298828125,-0.1197100830078125,9.725247143554688
46754601000,0.0,0.0,0.0,-0.0526724365234375,-0.12449848632812499,9.725247143554688
46755596000,0.0,0.0,0.0,-0.08140285644531249,-0.1149216796875,9.739612353515625
46756591000,0.0,0.0,0.0,-0.105344873046875,-0.105344873046875,9.753977563476562
46757586000,0.0,0.0,0.0,-0.1149216796875,-0.076614453125,9.782707983398437
46758581000,0.0,0.0,1.7453292519943295e-08,-0.12449848632812499,-0.047884033203124995,9.82580361328125
46759576000,0.0,-1.7453292519943295e-08,0.0,-0.1388636962890625,-0.0430956298828125,9.854534033203125
46760571000,0.0,-1.7453292519943295e-08,1.7453292519943295e-08,-0.143652099609375,-0.009576806640625,9.868899243164062
46761566000,0.0,0.0,0.0,-0.1292868896484375,0.0,9.868899243164062
46762561000,0.0,0.0,0.0,-0.0909796630859375,-0.009576806640625,9.830592016601562
46763556000,1.7453292519943295e-08,-1.7453292519943295e-08,0.0,-0.076614453125,0.009576806640625,9.801861596679688
46764550000,0.0,0.0,0.0,-0.0430956298828125,0.009576806640625,9.782707983398437
46765545000,0.0,0.0,0.0,-0.01915361328125,0.0,9.744400756835937
46766540000,0.0,0.0,0.0,-0.009576806640625,0.0,9.706093530273437
46767535000,-1.7453292519943295e-08,1.7453292519943295e-08,0.0,0.0047884033203125,0.0,9.701305126953125
46768530000,0.0,0.0,0.0,0.0,-0.023942016601562498,9.677363110351562
46769524000,-1.7453292519943295e-08,0.0,0.0,0.0047884033203125,-0.0383072265625,9.677363110351562
46770519000,0.0,1.7453292519943295e-08,0.0,-0.009576806640625,-0.05746083984375,9.710881933593749
46771514000,0.0,1.7453292519943295e-08,0.0,-0.0430956298828125,-0.086191259765625,9.706093530273437
46772509000,-1.7453292519943295e-08,0.0,0.0,-0.076614453125,-0.0909796630859375,9.734823950195311
46773504000,1.7453292519943295e-08,0.0,0.0,-0.1005564697265625,-0.105344873046875,9.773131176757811
46774499000,-1.7453292519943295e-08,0.0,0.0,-0.1197100830078125,-0.086191259765625,9.777919580078125
46775495000,0.0,0.0,1.7453292519943295e-08,-0.11013327636718749,-0.08140285644531249,9.777919580078125
46776490000,1.7453292519943295e-08,-1.7453292519943295e-08,0.0,-0.1149216796875,-0.05746083984375,9.782707983398437
46777484000,-1.7453292519943295e-08,-1.7453292519943295e-08,0.0,-0.1292868896484375,-0.05746083984375,9.763554370117188
46778479000,1.7453292519943295e-08,-1.7453292519943295e-08,1.7453292519943295e-08,-0.1292868896484375,-0.0430956298828125,9.753977563476562
46779474000,1.7453292519943295e-08,-1.7453292519943295e-08,0.0,-0.1197100830078125,-0.0047884033203125,9.739612353515625
46780469000,0.0,-1.7453292519943295e-08,0.0,-0.1005564697265625,0.0143652099609375,9.706093530273437
46781464000,1.7453292519943295e-08,-1.7453292519943295e-08,0.0,-0.05746083984375,0.0143652099609375,9.6917283203125
46782459000,0.0,0.0,0.0,-0.028730419921875,0.028730419921875,9.682151513671874
46783454000,0.0,0.0,0.0,-0.028730419921875,0.028730419921875,9.682151513671874
46784449000,0.0,0.0,0.0,0.0047884033203125,0.028730419921875,9.677363110351562
46785444000,0.0,1.7453292519943295e-08,-1.7453292519943295e-08,0.023942016601562498,0.0047884033203125,9.662997900390625
46786438000,0.0,1.7453292519943295e-08,0.0,0.0383072265625,0.01915361328125,9.643844287109374
46787433000,0.0,1.7453292519943295e-08,0.0,0.0430956298828125,0.033518823242187495,9.634267480468749
46788429000,0.0,1.7453292519943295e-08,-1.7453292519943295e-08,0.0430956298828125,-0.009576806640625,9.634267480468749
46789424000,0.0,0.0,0.0,0.01915361328125,0.0,9.65342109375
46790419000,0.0,1.7453292519943295e-08,0.0,0.0047884033203125,0.01915361328125,9.682151513671874
46791414000,0.0,0.0,0.0,-0.028730419921875,-0.01915361328125,9.6917283203125
46792411000,0.0,0.0,0.0,-0.062249243164062495,-0.009576806640625,9.715670336914062
46793403000,1.7453292519943295e-08,0.0,1.7453292519943295e-08,-0.0718260498046875,-0.0143652099609375,9.744400756835937
46794400000,1.7453292519943295e-08,-1.7453292519943295e-08,0.0,-0.09576806640624999,-0.023942016601562498,9.758765966796874
46795395000,0.0,0.0,1.7453292519943295e-08,-0.1005564697265625,-0.028730419921875,9.792284790039062
46796390000,1.7453292519943295e-08,-1.7453292519943295e-08,0.0,-0.0909796630859375,-0.009576806640625,9.811438403320311
46797385000,-1.7453292519943295e-08,-1.7453292519943295e-08,1.7453292519943295e-08,-0.0909796630859375,0.0,9.792284790039062
46798379000,1.7453292519943295e-08,-1.7453292519943295e-08,0.0,-0.076614453125,0.0143652099609375,9.792284790039062
46799374000,0.0,0.0,0.0,-0.0526724365234375,0.033518823242187495,9.763554370117188
46800370000,0.0,0.0,0.0,-0.033518823242187495,0.0383072265625,9.725247143554688
46801365000,0.0,0.0,0.0,-0.0047884033203125,0.0430956298828125,9.715670336914062
46802360000,0.0,0.0,0.0,0.0143652099609375,0.0526724365234375,9.710881933593749
46803355000,0.0,1.7453292519943295e-08,-1.7453292519943295e-08,0.033518823242187495,0.0526724365234375,9.701305126953125
46804350000,0.0,0.0,0.0,0.047884033203124995,0.0143652099609375,9.696516723632811
46805344000,0.0,1.7453292519943295e-08,-1.7453292519943295e-08,0.047884033203124995,0.023942016601562498,9.677363110351562
46806340000,-1.7453292519943295e-08,1.7453292519943295e-08,0.0,0.0430956298828125,0.01915361328125,9.672574707031249
46807335000,0.0,0.0,0.0,0.01915361328125,-0.01915361328125,9.662997900390625
46808330000,-1.7453292519943295e-08,1.7453292519943295e-08,0.0,-0.0143652099609375,-0.0047884033203125,9.667786303710937
46809325000,1.7453292519943295e-08,1.7453292519943295e-08,0.0,-0.0430956298828125,-0.0383072265625,9.701305126953125
46810320000,-1.7453292519943295e-08,0.0,0.0,-0.0430956298828125,-0.0383072265625,9.701305126953125
46811315000,0.0,0.0,0.0,-0.062249243164062495,-0.06703764648437499,9.720458740234374
46812310000,3.490658503988659e-08,-1.7453292519943295e-08,0.0,-0.08140285644531249,-0.062249243164062495,9.710881933593749
46813305000,-1.7453292519943295e-08,-1.7453292519943295e-08,0.0,-0.086191259765625,-0.086191259765625,9.696516723632811
46814303000,1.7453292519943295e-08,-1.7453292519943295e-08,0.0,-0.1005564697265625,-0.0909796630859375,9.677363110351562
46815295000,0.0,-1.7453292519943295e-08,0.0,-0.1005564697265625,-0.0909796630859375,9.662997900390625
46816290000,0.0,-1.7453292519943295e-08,1.7453292519943295e-08,-0.086191259765625,-0.08140285644531249,9.65342109375
46817286000,1.7453292519943295e-08,-1.7453292519943295e-08,0.0,-0.076614453125,-0.06703764648437499,9.634267480468749
46818280000,0.0,-1.7453292519943295e-08,0.0,-0.076614453125,-0.0718260498046875,9.595960253906249
46819277000,0.0,0.0,0.0,-0.0526724365234375,-0.08140285644531249,9.586383447265625
46820272000,0.0,-1.7453292519943295e-08,0.0,-0.047884033203124995,-0.11013327636718749,9.586383447265625
46821266000,0.0,0.0,0.0,-0.0430956298828125,-0.13407529296874998,9.581595043945311
46822261000,0.0,0.0,0.0,-0.0383072265625,-0.1484405029296875,9.619902270507811
46823259000,0.0,1.7453292519943295e-08,0.0,-0.047884033203124995,-0.16280571289062498,9.624690673828125
46824251000,-1.7453292519943295e-08,1.7453292519943295e-08,-1.7453292519943295e-08,-0.05746083984375,-0.16759411621093748,9.6151138671875
46825247000,0.0,1.7453292519943295e-08,0.0,-0.062249243164062495,-0.1771709228515625,9.610325463867188
46826241000,0.0,1.7453292519943295e-08,0.0,-0.076614453125,-0.16759411621093748,9.634267480468749
46827236000,0.0,1.7453292519943295e-08,0.0,-0.08140285644531249,-0.19632453613281248,9.648632690429688
46828231000,0.0,0.0,0.0,-0.1005564697265625,-0.21068974609375,9.65342109375
46829226000,0.0,1.7453292519943295e-08,0.0,-0.1292868896484375,-0.22026655273437498,9.701305126953125
46830221000,0.0,-1.7453292519943295e-08,0.0,-0.1580173095703125,-0.2442085693359375,9.744400756835937
46831216000,0.0,0.0,0.0,-0.201112939453125,-0.21068974609375,9.792284790039062
46832211000,1.7453292519943295e-08,-1.7453292519943295e-08,1.7453292519943295e-08,-0.22505495605468748,-0.1867477294921875,9.8449572265625
46833206000,0.0,-1.7453292519943295e-08,0.0,-0.2346317626953125,-0.15322890625,9.854534033203125
46834201000,0.0,-1.7453292519943295e-08,1.7453292519943295e-08,-0.2346317626953125,-0.1484405029296875,9.883264453125
46835196000,1.7453292519943295e-08,-1.7453292519943295e-08,0.0,-0.22026655273437498,-0.1292868896484375,9.907206469726562
46836191000,-1.7453292519943295e-08,-1.7453292519943295e-08,1.7453292519943295e-08,-0.22026655273437498,-0.1292868896484375,9.907206469726562
46837186000,0.0,0.0,0.0,-0.21068974609375,-0.13407529296874998,9.873687646484374
46838182000,0.0,0.0,0.0,-0.2059013427734375,-0.13407529296874998,9.854534033203125
46839177000,-1.7453292519943295e-08,0.0,0.0,-0.181959326171875,-0.143652099609375,9.888052856445311
46840172000,0.0,1.7453292519943295e-08,0.0,-0.19153613281249998,-0.1580173095703125,9.878476049804688
46841166000,0.0,1.7453292519943295e-08,0.0,-0.1771709228515625,-0.1771709228515625,9.868899243164062
46842161000,-1.7453292519943295e-08,1.7453292519943295e-08,0.0,-0.1484405029296875,-0.19153613281249998,9.854534033203125
46843156000,0.0,1.7453292519943295e-08,0.0,-0.1580173095703125,-0.181959326171875,9.801861596679688
46844152000,-1.7453292519943295e-08,3.490658503988659e-08,-1.7453292519943295e-08,-0.1580173095703125,-0.19632453613281248,9.7683427734375
46845149000,0.0,1.7453292519943295e-08,0.0,-0.143652099609375,-0.19632453613281248,9.749189160156249
46846142000,0.0,0.0,0.0,-0.143652099609375,-0.16280571289062498,9.749189160156249
46847137000,0.0,1.7453292519943295e-08,0.0,-0.1292868896484375,-0.181959326171875,9.739612353515625
46848132000,1.7453292519943295e-08,0.0,0.0,-0.143652099609375,-0.17238251953125,9.739612353515625
46849126000,-1.7453292519943295e-08,0.0,0.0,-0.15322890625,-0.12449848632812499,9.758765966796874
46850123000,1.7453292519943295e-08,-1.7453292519943295e-08,0.0,-0.1580173095703125,-0.11013327636718749,9.763554370117188
46851117000,0.0,-1.7453292519943295e-08,0.0,-0.1580173095703125,-0.11013327636718749,9.763554370117188
46852112000,0.0,-1.7453292519943295e-08,0.0,-0.1292868896484375,-0.086191259765625,9.758765966796874
46853107000,1.7453292519943295e-08,-1.7453292519943295e-08,0.0,-0.09576806640624999,-0.0718260498046875,9.715670336914062
46854102000,0.0,-1.7453292519943295e-08,0.0,-0.05746083984375,-0.05746083984375,9.686939916992188
46855098000,0.0,-1.7453292519943295e-08,0.0,-0.009576806640625,-0.0383072265625,9.662997900390625
46856093000,1.7453292519943295e-08,-1.7453292519943295e-08,0.0,0.033518823242187495,-0.028730419921875,9.639055883789062
46857088000,-1.7453292519943295e-08,0.0,0.0,0.06703764648437499,-0.033518823242187495,9.600748657226562
46858083000,0.0,0.0,0.0,0.09576806640624999,-0.047884033203124995,9.562441430664062
46859078000,0.0,1.7453292519943295e-08,0.0,0.086191259765625,-0.086191259765625,9.548076220703125
46860074000,-1.7453292519943295e-08,1.7453292519943295e-08,0.0,0.0909796630859375,-0.0909796630859375,9.543287817382812
46861067000,0.0,1.7453292519943295e-08,0.0,0.08140285644531249,-0.1197100830078125,9.5384994140625
46862062000,-1.7453292519943295e-08,3.490658503988659e-08,0.0,0.05746083984375,-0.1149216796875,9.548076220703125
46863059000,0.0,1.7453292519943295e-08,0.0,0.05746083984375,-0.1149216796875,9.548076220703125
46864053000,0.0,1.7453292519943295e-08,0.0,0.0383072265625,-0.12449848632812499,9.572018237304688
46865048000,1.7453292519943295e-08,1.7453292519943295e-08,-1.7453292519943295e-08,0.0,-0.1484405029296875,9.591171850585937
46866043000,0.0,0.0,0.0,-0.062249243164062495,-0.12449848632812499,9.65342109375
46867038000,-1.7453292519943295e-08,0.0,0.0,-0.1005564697265625,-0.1149216796875,9.696516723632811
46868033000,1.7453292519943295e-08,-1.7453292519943295e-08,0.0,-0.1484405029296875,-0.0909796630859375,9.725247143554688
46869030000,0.0,-1.7453292519943295e-08,0.0,-0.1867477294921875,-0.0718260498046875,9.773131176757811
46870025000,0.0,-1.7453292519943295e-08,0.0,-0.201112939453125,-0.028730419921875,9.835380419921874
46871020000,1.7453292519943295e-08,-1.7453292519943295e-08,0.0,-0.201112939453125,0.028730419921875,9.840168823242188
46872015000,0.0,-1.7453292519943295e-08,0.0,-0.1771709228515625,0.05746083984375,9.849745629882811
46873010000,0.0,0.0,0.0,-0.1484405029296875,0.1005564697265625,9.859322436523437
46874005000,1.7453292519943295e-08,-1.7453292519943295e-08,0.0,-0.1149216796875,0.1197100830078125,9.840168823242188
46875002000,0.0,0.0,0.0,-0.076614453125,0.09576806640624999,9.830592016601562
46875996000,-1.7453292519943295e-08,0.0,0.0,-0.0430956298828125,0.076614453125,9.80665
46876991000,0.0,1.7453292519943295e-08,1.7453292519943295e-08,-0.0047884033203125,0.0718260498046875,9.763554370117188
46877986000,-1.7453292519943295e-08,1.7453292519943295e-08,0.0,0.01915361328125,0.0383072265625,9.763554370117188
46878983000,0.0,1.7453292519943295e-08,0.0,0.028730419921875,-0.0047884033203125,9.7683427734375
46879976000,0.0,1.7453292519943295e-08,0.0,0.0383072265625,-0.023942016601562498,9.739612353515625
46880972000,-1.7453292519943295e-08,1.7453292519943295e-08,0.0,0.028730419921875,-0.09576806640624999,9.730035546875
46881967000,0.0,1.7453292519943295e-08,0.0,0.0047884033203125,-0.086191259765625,9.734823950195311
46882962000,0.0,1.7453292519943295e-08,0.0,-0.009576806640625,-0.08140285644531249,9.753977563476562
46883957000,1.7453292519943295e-08,1.7453292519943295e-08,0.0,-0.05746083984375,-0.08140285644531249,9.782707983398437
46884951000,-1.7453292519943295e-08,0.0,0.0,-0.0909796630859375,-0.05746083984375,9.80665
46885946000,1.7453292519943295e-08,0.0,0.0,-0.1005564697265625,-0.08140285644531249,9.787496386718749
46886941000,0.0,-1.7453292519943295e-08,0.0,-0.1197100830078125,-0.076614453125,9.782707983398437
46887940000,0.0,-1.7453292519943295e-08,0.0,-0.12449848632812499,-0.076614453125,9.787496386718749
46888933000,1.7453292519943295e-08,-1.7453292519943295e-08,0.0,-0.105344873046875,-0.0718260498046875,9.801861596679688
46889927000,0.0,-1.7453292519943295e-08,0.0,-0.1005564697265625,-0.0383072265625,9.811438403320311
46890922000,0.0,-1.7453292519943295e-08,0.0,-0.08140285644531249,-0.023942016601562498,9.8449572265625
46891917000,0.0,-1.7453292519943295e-08,0.0,-0.05746083984375,-0.028730419921875,9.849745629882811
46892912000,0.0,0.0,0.0,-0.0383072265625,-0.028730419921875,9.830592016601562
46893908000,0.0,0.0,0.0,-0.01915361328125,-0.0526724365234375,9.830592016601562
46894903000,0.0,0.0,1.7453292519943295e-08,-0.01915361328125,-0.0526724365234375,9.830592016601562
46895897000,0.0,1.7453292519943295e-08,0.0,-0.0047884033203125,-0.076614453125,9.82580361328125
46896892000,0.0,1.7453292519943295e-08,0.0,0.0047884033203125,-0.0909796630859375,9.811438403320311
46897887000,-1.7453292519943295e-08,1.7453292519943295e-08,0.0,0.01915361328125,-0.12449848632812499,9.821015209960937
46898882000,1.7453292519943295e-08,1.7453292519943295e-08,0.0,0.0143652099609375,-0.16280571289062498,9.816226806640625
46899878000,-1.7453292519943295e-08,1.7453292519943295e-08,0.0,0.0,-0.17238251953125,9.811438403320311
46900873000,0.0,1.7453292519943295e-08,-1.7453292519943295e-08,-0.0143652099609375,-0.2059013427734375,9.811438403320311
46901868000,0.0,1.7453292519943295e-08,0.0,-0.033518823242187495,-0.1867477294921875,9.80665
46902862000,-1.7453292519943295e-08,0.0,0.0,-0.05746083984375,-0.17238251953125,9.801861596679688
46903857000,1.7453292519943295e-08,0.0,0.0,-0.0718260498046875,-0.16280571289062498,9.811438403320311
46904852000,0.0,-1.7453292519943295e-08,0.0,-0.1149216796875,-0.1149216796875,9.82580361328125
46905848000,0.0,0.0,0.0,-0.1292868896484375,-0.0909796630859375,9.854534033203125
46906843000,1.7453292519943295e-08,-1.7453292519943295e-08,0.0,-0.1484405029296875,-0.062249243164062495,9.854534033203125
46907838000,0.0,-1.7453292519943295e-08,0.0,-0.143652099609375,-0.047884033203124995,9.878476049804688
46908833000,1.7453292519943295e-08,-1.7453292519943295e-08,0.0,-0.12449848632812499,-0.033518823242187495,9.892841259765625
46909830000,0.0,-1.7453292519943295e-08,0.0,-0.11013327636718749,-0.0143652099609375,9.873687646484374
46910823000,-1.7453292519943295e-08,0.0,0.0,-0.0909796630859375,-0.01915361328125,9.854534033203125
46911817000,0.0,0.0,0.0,-0.0430956298828125,-0.009576806640625,9.840168823242188
46912813000,0.0,0.0,0.0,-0.009576806640625,-0.01915361328125,9.792284790039062
46913808000,-1.7453292519943295e-08,1.7453292519943295e-08,0.0,0.01915361328125,-0.01915361328125,9.763554370117188
46914803000,0.0,0.0,1.7453292519943295e-08,0.0526724365234375,-0.0430956298828125,9.753977563476562
46915797000,-1.7453292519943295e-08,1.7453292519943295e-08,0.0,0.0526724365234375,-0.0430956298828125,9.739612353515625
46916792000,0.0,1.7453292519943295e-08,0.0,0.05746083984375,-0.086191259765625,9.758765966796874
46917787000,0.0,1.7453292519943295e-08,1.7453292519943295e-08,0.028730419921875,-0.09576806640624999,9.749189160156249
46918783000,-1.7453292519943295e-08,1.7453292519943295e-08,0.0,0.023942016601562498,-0.11013327636718749,9.734823950195311
46919779000,0.0,0.0,0.0,0.0,-0.11013327636718749,9.739612353515625
46920773000,0.0,0.0,0.0,-0.023942016601562498,-0.076614453125,9.734823950195311
46921768000,0.0,0.0,0.0,-0.0383072265625,-0.076614453125,9.739612353515625
46922763000,0.0,0.0,0.0,-0.0383072265625,-0.076614453125,9.739612353515625
46923758000,0.0,0.0,0.0,-0.062249243164062495,-0.08140285644531249,9.763554370117188
46924754000,0.0,-1.7453292519943295e-08,0.0,-0.086191259765625,-0.0526724365234375,9.792284790039062
46925749000,0.0,0.0,0.0,-0.0909796630859375,-0.05746083984375,9.801861596679688
46926744000,1.7453292519943295e-08,-1.7453292519943295e-08,0.0,-0.105344873046875,-0.0718260498046875,9.797073193359374
46927739000,-1.7453292519943295e-08,-1.7453292519943295e-08,0.0,-0.1005564697265625,-0.06703764648437499,9.821015209960937
46928734000,0.0,0.0,0.0,-0.09576806640624999,-0.086191259765625,9.82580361328125
46929729000,0.0,0.0,0.0,-0.086191259765625,-0.11013327636718749,9.801861596679688
46930724000,0.0,0.0,0.0,-0.08140285644531249,-0.11013327636718749,9.792284790039062
46931719000,0.0,0.0,0.0,-0.076614453125,-0.0909796630859375,9.80665
46932714000,0.0,0.0,0.0,-0.08140285644531249,-0.1005564697265625,9.777919580078125
46933708000,-1.7453292519943295e-08,1.7453292519943295e-08,0.0,-0.0718260498046875,-0.1149216796875,9.777919580078125
46934704000,0.0,0.0,0.0,-0.06703764648437499,-0.1149216796875,9.763554370117188
46935698000,-1.7453292519943295e-08,1.7453292519943295e-08,0.0,-0.0718260498046875,-0.105344873046875,9.7683427734375
46936693000,1.7453292519943295e-08,1.7453292519943295e-08,0.0,-0.062249243164062495,-0.105344873046875,9.7683427734375
46937689000,0.0,0.0,0.0,-0.08140285644531249,-0.0909796630859375,9.758765966796874
46938683000,0.0,0.0,0.0,-0.09576806640624999,-0.0909796630859375,9.753977563476562
46939678000,1.7453292519943295e-08,0.0,0.0,-0.11013327636718749,-0.0718260498046875,9.782707983398437
46940675000,-1.7453292519943295e-08,0.0,0.0,-0.1197100830078125,-0.033518823242187495,9.787496386718749
46941668000,1.7453292519943295e-08,0.0,0.0,-0.105344873046875,-0.0430956298828125,9.777919580078125
46942663000,0.0,-1.7453292519943295e-08,0.0,-0.105344873046875,-0.0430956298828125,9.758765966796874
46943659000,0.0,0.0,0.0,-0.0909796630859375,-0.028730419921875,9.773131176757811
46944653000,1.7453292519943295e-08,-1.7453292519943295e-08,0.0,-0.076614453125,-0.0526724365234375,9.753977563476562
46945648000,-1.7453292519943295e-08,0.0,0.0,-0.076614453125,-0.0526724365234375,9.730035546875
46946643000,0.0,0.0,0.0,-0.076614453125,-0.0526724365234375,9.730035546875
46947637000,0.0,-1.7453292519943295e-08,0.0,-0.062249243164062495,-0.05746083984375,9.730035546875
46948632000,-1.7453292519943295e-08,0.0,0.0,-0.0430956298828125,-0.0909796630859375,9.715670336914062
46949628000,1.7453292519943295e-08,0.0,0.0,-0.033518823242187495,-0.105344873046875,9.682151513671874
46950625000,-1.7453292519943295e-08,0.0,1.7453292519943295e-08,-0.0143652099609375,-0.1292868896484375,9.677363110351562
46951618000,0.0,1.7453292519943295e-08,0.0,-0.009576806640625,-0.16759411621093748,9.667786303710937
46952613000,1.7453292519943295e-08,0.0,1.7453292519943295e-08,-0.0047884033203125,-0.17238251953125,9.648632690429688
46953608000,-1.7453292519943295e-08,1.7453292519943295e-08,0.0,-0.0143652099609375,-0.1867477294921875,9.662997900390625
46954603000,0.0,0.0,0.0,-0.028730419921875,-0.21068974609375,9.658209497070311
46955598000,0.0,0.0,1.7453292519943295e-08,-0.033518823242187495,-0.16759411621093748,9.648632690429688
46956593000,1.7453292519943295e-08,0.0,0.0,-0.028730419921875,-0.16759411621093748,9.658209497070311
46957588000,0.0,0.0,0.0,-0.06703764648437499,-0.15322890625,9.643844287109374
46958583000,0.0,0.0,0.0,-0.08140285644531249,-0.1197100830078125,9.639055883789062
46959577000,0.0,0.0,0.0,-0.1149216796875,-0.08140285644531249,9.667786303710937
46960572000,-1.7453292519943295e-08,0.0,0.0,-0.1197100830078125,-0.0430956298828125,9.686939916992188
46961567000,1.7453292519943295e-08,0.0,-1.7453292519943295e-08,-0.1197100830078125,-0.047884033203124995,9.6917283203125
46962562000,-1.7453292519943295e-08,0.0,0.0,-0.1292868896484375,-0.062249243164062495,9.710881933593749
46963557000,0.0,0.0,-1.7453292519943295e-08,-0.12449848632812499,-0.062249243164062495,9.710881933593749
46964552000,0.0,-1.7453292519943295e-08,0.0,-0.12449848632812499,-0.06703764648437499,9.701305126953125
46965548000,-1.7453292519943295e-08,0.0,0.0,-0.13407529296874998,-0.062249243164062495,9.710881933593749
46966542000,1.7453292519943295e-08,0.0,0.0,-0.1197100830078125,-0.0526724365234375,9.744400756835937
46967537000,0.0,0.0,1.7453292519943295e-08,-0.11013327636718749,-0.1197100830078125,9.753977563476562
46968532000,-1.7453292519943295e-08,1.7453292519943295e-08,0.0,-0.1149216796875,-0.1197100830078125,9.782707983398437
46969527000,1.7453292519943295e-08,0.0,0.0,-0.1005564697265625,-0.1388636962890625,9.797073193359374
46970521000,-1.7453292519943295e-08,0.0,0.0,-0.11013327636718749,-0.1771709228515625,9.773131176757811
46971516000,0.0,0.0,0.0,-0.1005564697265625,-0.1771709228515625,9.792284790039062
46972511000,1.7453292519943295e-08,0.0,0.0,-0.09576806640624999,-0.16759411621093748,9.787496386718749
46973506000,-1.7453292519943295e-08,0.0,0.0,-0.09576806640624999,-0.16759411621093748,9.787496386718749
46974504000,1.7453292519943295e-08,0.0,0.0,-0.105344873046875,-0.1580173095703125,9.744400756835937
46975497000,0.0,0.0,0.0,-0.105344873046875,-0.1292868896484375,9.744400756835937
46976491000,0.0,0.0,0.0,-0.1197100830078125,-0.105344873046875,9.773131176757811
46977486000,0.0,0.0,0.0,-0.13407529296874998,-0.09576806640624999,9.763554370117188
46978481000,0.0,0.0,0.0,-0.12449848632812499,-0.076614453125,9.773131176757811
46979476000,0.0,0.0,0.0,-0.143652099609375,-0.0718260498046875,9.801861596679688
46980472000,-1.7453292519943295e-08,0.0,0.0,-0.15322890625,-0.0526724365234375,9.816226806640625
46981467000,0.0,0.0,0.0,-0.15322890625,-0.0383072265625,9.840168823242188
46982462000,0.0,0.0,0.0,-0.16280571289062498,-0.033518823242187495,9.854534033203125
46983457000,-1.7453292519943295e-08,0.0,0.0,-0.1580173095703125,-0.062249243164062495,9.854534033203125
46984451000,1.7453292519943295e-08,0.0,0.0,-0.1484405029296875,-0.08140285644531249,9.840168823242188
46985446000,-1.7453292519943295e-08,0.0,0.0,-0.143652099609375,-0.0526724365234375,9.821015209960937
46986441000,0.0,1.7453292519943295e-08,0.0,-0.1388636962890625,-0.09576806640624999,9.797073193359374
46987437000,0.0,-1.7453292519943295e-08,0.0,-0.12449848632812499,-0.1149216796875,9.797073193359374
46988432000,0.0,1.7453292519943295e-08,0.0,-0.1149216796875,-0.076614453125,9.797073193359374
46989426000,1.7453292519943295e-08,0.0,0.0,-0.11013327636718749,-0.0909796630859375,9.773131176757811
46990421000,-1.7453292519943295e-08,0.0,0.0,-0.105344873046875,-0.0718260498046875,9.749189160156249
46991416000,1.7453292519943295e-08,0.0,0.0,-0.076614453125,-0.06703764648437499,9.749189160156249
46992411000,0.0,-1.7453292519943295e-08,0.0,-0.0718260498046875,-0.086191259765625,9.739612353515625
46993407000,0.0,-1.7453292519943295e-08,1.7453292519943295e-08,-0.0718260498046875,-0.105344873046875,9.701305126953125
46994402000,0.0,0.0,0.0,-0.0430956298828125,-0.076614453125,9.720458740234374
46995397000,0.0,0.0,0.0,-0.033518823242187495,-0.086191259765625,9.706093530273437
46996391000,0.0,0.0,0.0,-0.023942016601562498,-0.062249243164062495,9.706093530273437
46997386000,1.7453292519943295e-08,0.0,0.0,-0.01915361328125,-0.0526724365234375,9.715670336914062
46998381000,0.0,0.0,0.0,-0.028730419921875,-0.062249243164062495,9.710881933593749
46999376000,0.0,0.0,0.0,-0.028730419921875,-0.076614453125,9.725247143554688
47000373000,-1.7453292519943295e-08,0.0,0.0,-0.028730419921875,-0.076614453125,9.725247143554688
47001366000,0.0,1.7453292519943295e-08,0.0,-0.0430956298828125,-0.1005564697265625,9.739612353515625
47002361000,0.0,0.0,0.0,-0.05746083984375,-0.11013327636718749,9.758765966796874
47003358000,-1.7453292519943295e-08,1.7453292519943295e-08,0.0,-0.06703764648437499,-0.1484405029296875,9.763554370117188
47004351000,1.7453292519943295e-08,0.0,0.0,-0.086191259765625,-0.143652099609375,9.763554370117188
47005347000,-1.7453292519943295e-08,0.0,0.0,-0.1005564697265625,-0.1484405029296875,9.787496386718749
47006342000,0.0,1.7453292519943295e-08,-1.7453292519943295e-08,-0.1149216796875,-0.19632453613281248,9.797073193359374
47007339000,0.0,0.0,1.7453292519943295e-08,-0.143652099609375,-0.181959326171875,9.816226806640625
47008332000,-1.7453292519943295e-08,1.7453292519943295e-08,0.0,-0.16759411621093748,-0.19153613281249998,9.854534033203125
47009327000,1.7453292519943295e-08,0.0,0.0,-0.17238251953125,-0.1580173095703125,9.835380419921874
47010322000,-1.7453292519943295e-08,-1.7453292519943295e-08,0.0,-0.1771709228515625,-0.11013327636718749,9.854534033203125
47011317000,0.0,0.0,0.0,-0.1580173095703125,-0.086191259765625,9.859322436523437
47012313000,1.7453292519943295e-08,-1.7453292519943295e-08,0.0,-0.143652099609375,-0.08140285644531249,9.82580361328125
47013308000,0.0,0.0,0.0,-0.13407529296874998,-0.05746083984375,9.835380419921874
47014303000,1.7453292519943295e-08,0.0,0.0,-0.1292868896484375,-0.062249243164062495,9.816226806640625
47015298000,0.0,-1.7453292519943295e-08,0.0,-0.1292868896484375,-0.08140285644531249,9.777919580078125
47016293000,-1.7453292519943295e-08,0.0,0.0,-0.1197100830078125,-0.076614453125,9.782707983398437
47017287000,0.0,0.0,0.0,-0.12449848632812499,-0.1005564697265625,9.773131176757811
47018285000,-1.7453292519943295e-08,0.0,0.0,-0.1197100830078125,-0.076614453125,9.763554370117188
47019282000,0.0,1.7453292519943295e-08,0.0,-0.105344873046875,-0.0718260498046875,9.773131176757811
47020275000,-1.7453292519943295e-08,0.0,0.0,-0.1149216796875,-0.09576806640624999,9.749189160156249
47021270000,0.0,1.7453292519943295e-08,-1.7453292519943295e-08,-0.1149216796875,-0.076614453125,9.720458740234374
47022264000,0.0,0.0,0.0,-0.1149216796875,-0.11013327636718749,9.701305126953125
47023259000,-1.7453292519943295e-08,1.7453292519943295e-08,0.0,-0.1292868896484375,-0.11013327636718749,9.706093530273437
47024257000,1.7453292519943295e-08,0.0,0.0,-0.1292868896484375,-0.1388636962890625,9.710881933593749
47025252000,-1.7453292519943295e-08,0.0,0.0,-0.1292868896484375,-0.13407529296874998,9.710881933593749
47026247000,1.7453292519943295e-08,1.7453292519943295e-08,-1.7453292519943295e-08,-0.1388636962890625,-0.1484405029296875,9.715670336914062
47027242000,0.0,-1.7453292519943295e-08,1.7453292519943295e-08,-0.1580173095703125,-0.19632453613281248,9.696516723632811
47028239000,0.0,1.7453292519943295e-08,0.0,-0.16759411621093748,-0.16280571289062498,9.730035546875
47029232000,1.7453292519943295e-08,-1.7453292519943295e-08,0.0,-0.16759411621093748,-0.16280571289062498,9.730035546875
47030229000,-1.7453292519943295e-08,0.0,0.0,-0.1771709228515625,-0.15322890625,9.787496386718749
47031225000,1.7453292519943295e-08,0.0,0.0,-0.1867477294921875,-0.11013327636718749,9.80665
47032219000,1.7453292519943295e-08,-1.7453292519943295e-08,0.0,-0.1771709228515625,-0.033518823242187495,9.821015209960937
47033214000,0.0,-1.7453292519943295e-08,1.7453292519943295e-08,-0.16759411621093748,0.033518823242187495,9.816226806640625
47034209000,1.7453292519943295e-08,0.0,0.0,-0.1580173095703125,0.0718260498046875,9.797073193359374
47035205000,-1.7453292519943295e-08,0.0,1.7453292519943295e-08,-0.12449848632812499,0.1292868896484375,9.792284790039062
47036198000,0.0,0.0,0.0,-0.09576806640624999,0.1292868896484375,9.744400756835937
47037197000,0.0,0.0,0.0,-0.08140285644531249,0.12449848632812499,9.706093530273437
47038190000,-1.7453292519943295e-08,0.0,0.0,-0.028730419921875,0.13407529296874998,9.701305126953125
47039185000,1.7453292519943295e-08,0.0,-1.7453292519943295e-08,-0.028730419921875,0.0718260498046875,9.662997900390625
47040181000,-3.490658503988659e-08,1.7453292519943295e-08,0.0,-0.01915361328125,0.05746083984375,9.658209497070311
47041176000,1.7453292519943295e-08,1.7453292519943295e-08,0.0,0.0143652099609375,-0.0143652099609375,9.65342109375
47042170000,0.0,0.0,0.0,0.009576806640625,-0.05746083984375,9.639055883789062
47043168000,-1.7453292519943295e-08,1.7453292519943295e-08,0.0,0.0047884033203125,-0.1292868896484375,9.639055883789062
47044163000,3.490658503988659e-08,0.0,0.0,-0.01915361328125,-0.15322890625,9.624690673828125
47045158000,-3.490658503988659e-08,0.0,0.0,-0.023942016601562498,-0.1867477294921875,9.629479077148437
47046154000,1.7453292519943295e-08,1.7453292519943295e-08,0.0,-0.023942016601562498,-0.258573779296875,9.639055883789062
47047152000,1.7453292519943295e-08,-1.7453292519943295e-08,1.7453292519943295e-08,-0.047884033203124995,-0.277727392578125,9.639055883789062
47048144000,0.0,0.0,0.0,-0.0718260498046875,-0.258573779296875,9.677363110351562
47049141000,1.7453292519943295e-08,-1.7453292519943295e-08,0.0,-0.076614453125,-0.2154781494140625,9.710881933593749
47050136000,0.0,-1.7453292519943295e-08,0.0,-0.08140285644531249,-0.16280571289062498,9.725247143554688
47051130000,3.490658503988659e-08,0.0,0.0,-0.0718260498046875,-0.1197100830078125,9.744400756835937
47052125000,0.0,-1.7453292519943295e-08,0.0,-0.05746083984375,-0.076614453125,9.749189160156249
47053120000,0.0,-1.7453292519943295e-08,0.0,-0.0430956298828125,-0.033518823242187495,9.744400756835937
47054115000,0.0,0.0,0.0,-0.0143652099609375,0.0143652099609375,9.730035546875
47055113000,-1.7453292519943295e-08,0.0,0.0,0.0,0.0383072265625,9.701305126953125
47056108000,0.0,1.7453292519943295e-08,0.0,0.033518823242187495,0.076614453125,9.6917283203125
47057103000,-1.7453292519943295e-08,0.0,0.0,0.047884033203124995,0.047884033203124995,9.677363110351562
47058098000,-1.7453292519943295e-08,1.7453292519943295e-08,0.0,0.0526724365234375,0.0526724365234375,9.662997900390625
47059095000,0.0,1.7453292519943295e-08,0.0,0.05746083984375,0.01915361328125,9.648632690429688
47060088000,-3.490658503988659e-08,1.7453292519943295e-08,0.0,0.0383072265625,-0.0383072265625,9.634267480468749
47061083000,0.0,1.7453292519943295e-08,0.0,0.01915361328125,-0.08140285644531249,9.65342109375
47062080000,0.0,1.7453292519943295e-08,0.0,-0.009576806640625,-0.15322890625,9.672574707031249
47063075000,-1.7453292519943295e-08,1.7453292519943295e-08,0.0,-0.009576806640625,-0.15322890625,9.672574707031249
47064069000,1.7453292519943295e-08,0.0,0.0,-0.05746083984375,-0.16759411621093748,9.686939916992188
47065064000,-1.7453292519943295e-08,0.0,0.0,-0.076614453125,-0.2059013427734375,9.701305126953125
47066059000,3.490658503988659e-08,0.0,0.0,-0.105344873046875,-0.21068974609375,9.677363110351562
47067054000,0.0,-1.7453292519943295e-08,0.0,-0.13407529296874998,-0.19153613281249998,9.667786303710937
47068053000,0.0,0.0,0.0,-0.1484405029296875,-0.1580173095703125,9.6917283203125
47069046000,3.490658503988659e-08,-3.490658503988659e-08,0.0,-0.1580173095703125,-0.09576806640624999,9.686939916992188
47070041000,0.0,-1.7453292519943295e-08,0.0,-0.1580173095703125,-0.0718260498046875,9.701305126953125
47071036000,1.7453292519943295e-08,-1.7453292519943295e-08,0.0,-0.1484405029296875,-0.023942016601562498,9.706093530273437
47072031000,1.7453292519943295e-08,-3.490658503988659e-08,0.0,-0.143652099609375,0.033518823242187495,9.730035546875
47073026000,-1.7453292519943295e-08,0.0,0.0,-0.1149216796875,0.0718260498046875,9.739612353515625
47074022000,0.0,-1.7453292519943295e-08,0.0,-0.105344873046875,0.1197100830078125,9.730035546875
47075017000,-1.7453292519943295e-08,1.7453292519943295e-08,0.0,-0.06703764648437499,0.181959326171875,9.720458740234374
47076014000,-1.7453292519943295e-08,1.7453292519943295e-08,0.0,-0.01915361328125,0.16280571289062498,9.701305126953125
47077007000,-1.7453292519943295e-08,1.7453292519943295e-08,0.0,0.0,0.16759411621093748,9.672574707031249
47078002000,-1.7453292519943295e-08,1.7453292519943295e-08,0.0,0.023942016601562498,0.2059013427734375,9.667786303710937
47078997000,0.0,1.7453292519943295e-08,0.0,0.0430956298828125,0.1292868896484375,9.643844287109374
47079995000,-1.7453292519943295e-08,1.7453292519943295e-08,0.0,0.0383072265625,0.13407529296874998,9.648632690429688
47080989000,0.0,1.7453292519943295e-08,0.0,0.033518823242187495,0.06703764648437499,9.648632690429688
47081984000,0.0,0.0,0.0,0.0143652099609375,0.0047884033203125,9.658209497070311
47082979000,-1.7453292519943295e-08,1.7453292519943295e-08,0.0,-0.0047884033203125,0.0,9.672574707031249
47083978000,1.7453292519943295e-08,0.0,0.0,-0.028730419921875,-0.05746083984375,9.662997900390625
47084969000,0.0,0.0,0.0,-0.062249243164062495,-0.05746083984375,9.662997900390625
47085965000,1.7453292519943295e-08,0.0,0.0,-0.062249243164062495,-0.0430956298828125,9.6917283203125
47086962000,1.7453292519943295e-08,-1.7453292519943295e-08,0.0,-0.076614453125,-0.023942016601562498,9.696516723632811
47087957000,1.7453292519943295e-08,-1.7453292519943295e-08,0.0,-0.0718260498046875,-0.023942016601562498,9.667786303710937
47088952000,1.7453292519943295e-08,-1.7453292519943295e-08,0.0,-0.06703764648437499,0.01915361328125,9.658209497070311
47089948000,0.0,-1.7453292519943295e-08,0.0,-0.08140285644531249,0.0526724365234375,9.686939916992188
47090941000,1.7453292519943295e-08,-1.7453292519943295e-08,0.0,-0.0718260498046875,0.05746083984375,9.701305126953125
47091936000,0.0,-1.7453292519943295e-08,0.0,-0.062249243164062495,0.09576806640624999,9.730035546875
47092934000,0.0,1.7453292519943295e-08,0.0,-0.047884033203124995,0.105344873046875,9.739612353515625
47093930000,0.0,0.0,0.0,-0.047884033203124995,0.105344873046875,9.739612353515625
47094923000,-1.7453292519943295e-08,1.7453292519943295e-08,1.7453292519943295e-08,-0.023942016601562498,0.105344873046875,9.734823950195311
47095919000,-1.7453292519943295e-08,1.7453292519943295e-08,0.0,0.0,0.08140285644531249,9.715670336914062
47096913000,0.0,1.7453292519943295e-08,0.0,0.01915361328125,0.09576806640624999,9.706093530273437
47097909000,-3.490658503988659e-08,1.7453292519943295e-08,0.0,0.033518823242187495,0.0909796630859375,9.720458740234374
47098908000,0.0,1.7453292519943295e-08,0.0,0.023942016601562498,0.047884033203124995,9.720458740234374
47099900000,-1.7453292519943295e-08,1.7453292519943295e-08,0.0,0.0143652099609375,0.047884033203124995,9.739612353515625
47100895000,0.0,1.7453292519943295e-08,-1.7453292519943295e-08,0.0047884033203125,-0.01915361328125,9.763554370117188
47101890000,1.7453292519943295e-08,0.0,0.0,-0.0047884033203125,-0.08140285644531249,9.758765966796874
47102885000,-1.7453292519943295e-08,0.0,0.0,-0.0143652099609375,-0.08140285644531249,9.797073193359374
47103880000,1.7453292519943295e-08,0.0,0.0,-0.01915361328125,-0.1197100830078125,9.816226806640625
47104879000,0.0,-1.7453292519943295e-08,0.0,-0.01915361328125,-0.1149216796875,9.787496386718749
47105874000,1.7453292519943295e-08,0.0,0.0,-0.009576806640625,-0.0909796630859375,9.787496386718749
47106867000,1.7453292519943295e-08,-3.490658503988659e-08,0.0,-0.0143652099609375,-0.0718260498046875,9.7683427734375
47107862000,0.0,-1.7453292519943295e-08,0.0,-0.009576806640625,-0.033518823242187495,9.753977563476562
47108857000,1.7453292519943295e-08,-1.7453292519943295e-08,0.0,-0.0143652099609375,0.009576806640625,9.7683427734375
47109852000,0.0,-1.7453292519943295e-08,0.0,-0.023942016601562498,0.0430956298828125,9.763554370117188
47110848000,0.0,0.0,0.0,-0.01915361328125,0.08140285644531249,9.777919580078125
47111845000,0.0,0.0,0.0,-0.01915361328125,0.1197100830078125,9.816226806640625
47112840000,-1.7453292519943295e-08,1.7453292519943295e-08,0.0,-0.033518823242187495,0.11013327636718749,9.811438403320311
47113834000,0.0,0.0,0.0,-0.033518823242187495,0.076614453125,9.801861596679688
47114833000,-1.7453292519943295e-08,1.7453292519943295e-08,1.7453292519943295e-08,-0.0430956298828125,0.047884033203124995,9.816226806640625
47115824000,-1.7453292519943295e-08,1.7453292519943295e-08,0.0,-0.047884033203124995,0.033518823242187495,9.82580361328125
47116819000,0.0,1.7453292519943295e-08,0.0,-0.047884033203124995,-0.01915361328125,9.82580361328125
47117817000,-1.7453292519943295e-08,1.7453292519943295e-08,0.0,-0.06703764648437499,-0.0383072265625,9.835380419921874
47118812000,0.0,1.7453292519943295e-08,0.0,-0.06703764648437499,-0.0383072265625,9.835380419921874
47119807000,0.0,0.0,1.7453292519943295e-08,-0.0718260498046875,-0.033518823242187495,9.840168823242188
47120804000,0.0,0.0,-1.7453292519943295e-08,-0.076614453125,-0.105344873046875,9.811438403320311
47121798000,1.7453292519943295e-08,0.0,1.7453292519943295e-08,-0.09576806640624999,-0.1149216796875,9.792284790039062
47122793000,0.0,0.0,0.0,-0.11013327636718749,-0.09576806640624999,9.821015209960937
47123789000,3.490658503988659e-08,0.0,0.0,-0.1149216796875,-0.1149216796875,9.792284790039062
47124784000,0.0,-1.7453292519943295e-08,0.0,-0.12449848632812499,-0.11013327636718749,9.797073193359374
47125779000,1.7453292519943295e-08,0.0,0.0,-0.1292868896484375,-0.1005564697265625,9.792284790039062
47126774000,1.7453292519943295e-08,-3.490658503988659e-08,0.0,-0.12449848632812499,-0.0718260498046875,9.763554370117188
47127769000,0.0,0.0,0.0,-0.1149216796875,-0.009576806640625,9.758765966796874
47128764000,1.7453292519943295e-08,0.0,0.0,-0.09576806640624999,0.009576806640625,9.730035546875
47129762000,0.0,-1.7453292519943295e-08,0.0,-0.08140285644531249,0.05746083984375,9.696516723632811
47130757000,-1.7453292519943295e-08,0.0,1.7453292519943295e-08,-0.05746083984375,0.11013327636718749,9.686939916992188
47131751000,0.0,0.0,0.0,-0.028730419921875,0.143652099609375,9.672574707031249
47132749000,-1.7453292519943295e-08,1.7453292519943295e-08,0.0,-0.009576806640625,0.15322890625,9.65342109375
47133741000,-1.7453292519943295e-08,0.0,0.0,0.01915361328125,0.1388636962890625,9.648632690429688
47134737000,0.0,1.7453292519943295e-08,0.0,0.023942016601562498,0.1149216796875,9.648632690429688
47135731000,-1.7453292519943295e-08,1.7453292519943295e-08,0.0,0.01915361328125,0.086191259765625,9.634267480468749
47136730000,0.0,1.7453292519943295e-08,0.0,0.009576806640625,0.033518823242187495,9.658209497070311
47137723000,0.0,0.0,0.0,-0.01915361328125,0.0047884033203125,9.677363110351562
47138718000,0.0,1.7453292519943295e-08,0.0,-0.028730419921875,-0.033518823242187495,9.696516723632811
47139714000,1.7453292519943295e-08,0.0,1.7453292519943295e-08,-0.05746083984375,-0.105344873046875,9.715670336914062
47140709000,0.0,0.0,0.0,-0.09576806640624999,-0.105344873046875,9.739612353515625
47141704000,1.7453292519943295e-08,-1.7453292519943295e-08,0.0,-0.1197100830078125,-0.1867477294921875,9.758765966796874
47142700000,0.0,-1.7453292519943295e-08,0.0,-0.1580173095703125,-0.2154781494140625,9.787496386718749
47143695000,1.7453292519943295e-08,0.0,0.0,-0.19153613281249998,-0.21068974609375,9.821015209960937
47144690000,1.7453292519943295e-08,-1.7453292519943295e-08,0.0,-0.19153613281249998,-0.21068974609375,9.821015209960937
47145685000,0.0,0.0,0.0,-0.21068974609375,-0.239420166015625,9.840168823242188
47146680000,1.7453292519943295e-08,-1.7453292519943295e-08,0.0,-0.239420166015625,-0.2154781494140625,9.86411083984375
47147674000,-1.7453292519943295e-08,0.0,0.0,-0.24899697265624998,-0.1867477294921875,9.883264453125
47148672000,0.0,0.0,0.0,-0.24899697265624998,-0.16280571289062498,9.878476049804688
47149667000,-1.7453292519943295e-08,0.0,0.0,-0.2537853759765625,-0.1149216796875,9.883264453125
47150661000,-1.7453292519943295e-08,0.0,0.0,-0.239420166015625,-0.086191259765625,9.883264453125
47151656000,0.0,0.0,0.0,-0.229843359375,-0.11013327636718749,9.883264453125
47152651000,-1.7453292519943295e-08,1.7453292519943295e-08,0.0,-0.229843359375,-0.12449848632812499,9.892841259765625
47153646000,-1.7453292519943295e-08,1.7453292519943295e-08,0.0,-0.2059013427734375,-0.1484405029296875,9.892841259765625
47154645000,1.7453292519943295e-08,0.0,0.0,-0.19632453613281248,-0.19153613281249998,9.868899243164062
47155640000,-1.7453292519943295e-08,0.0,0.0,-0.1867477294921875,-0.201112939453125,9.849745629882811
47156634000,1.7453292519943295e-08,0.0,0.0,-0.17238251953125,-0.22026655273437498,9.840168823242188
47157630000,0.0,0.0,0.0,-0.17238251953125,-0.22505495605468748,9.82580361328125
47158624000,0.0,0.0,-1.7453292519943295e-08,-0.16280571289062498,-0.24899697265624998,9.801861596679688
47159618000,1.7453292519943295e-08,0.0,0.0,-0.17238251953125,-0.26815058593749996,9.782707983398437
47160613000,0.0,0.0,0.0,-0.1771709228515625,-0.24899697265624998,9.777919580078125
47161611000,1.7453292519943295e-08,0.0,0.0,-0.181959326171875,-0.24899697265624998,9.777919580078125
47162606000,1.7453292519943295e-08,-1.7453292519943295e-08,0.0,-0.1867477294921875,-0.2154781494140625,9.7683427734375
47163603000,0.0,0.0,0.0,-0.1867477294921875,-0.17238251953125,9.801861596679688
47164596000,0.0,-1.7453292519943295e-08,0.0,-0.19632453613281248,-0.13407529296874998,9.830592016601562
47165591000,0.0,1.7453292519943295e-08,0.0,-0.19153613281249998,-0.1197100830078125,9.8449572265625
47166586000,0.0,0.0,0.0,-0.1771709228515625,-0.13407529296874998,9.849745629882811
47167583000,-1.7453292519943295e-08,0.0,0.0,-0.15322890625,-0.11013327636718749,9.854534033203125
47168578000,0.0,1.7453292519943295e-08,0.0,-0.13407529296874998,-0.0909796630859375,9.873687646484374
47169573000,0.0,0.0,0.0,-0.1005564697265625,-0.1005564697265625,9.888052856445311
47170568000,-1.7453292519943295e-08,0.0,1.7453292519943295e-08,-0.08140285644531249,-0.09576806640624999,9.86411083984375
47171562000,0.0,0.0,0.0,-0.086191259765625,-0.1388636962890625,9.859322436523437
47172557000,-1.7453292519943295e-08,0.0,1.7453292519943295e-08,-0.1005564697265625,-0.1771709228515625,9.859322436523437
47173554000,0.0,1.7453292519943295e-08,0.0,-0.105344873046875,-0.1484405029296875,9.854534033203125
47174551000,1.7453292519943295e-08,0.0,0.0,-0.09576806640624999,-0.19632453613281248,9.840168823242188
47175544000,0.0,0.0,0.0,-0.09576806640624999,-0.1771709228515625,9.811438403320311
47176539000,1.7453292519943295e-08,0.0,0.0,-0.09576806640624999,-0.1771709228515625,9.811438403320311
47177534000,1.7453292519943295e-08,0.0,0.0,-0.09576806640624999,-0.12449848632812499,9.792284790039062
47178529000,0.0,0.0,0.0,-0.1005564697265625,-0.1149216796875,9.782707983398437
47179525000,1.7453292519943295e-08,0.0,0.0,-0.1005564697265625,-0.08140285644531249,9.749189160156249
47180520000,0.0,0.0,0.0,-0.105344873046875,-0.076614453125,9.744400756835937
47181515000,1.7453292519943295e-08,0.0,0.0,-0.12449848632812499,-0.1005564697265625,9.7683427734375
47182510000,0.0,0.0,0.0,-0.1149216796875,-0.086191259765625,9.792284790039062
47183505000,0.0,0.0,0.0,-0.11013327636718749,-0.06703764648437499,9.830592016601562
47184500000,0.0,0.0,0.0,-0.12449848632812499,-0.062249243164062495,9.849745629882811
47185495000,0.0,1.7453292519943295e-08,0.0,-0.1292868896484375,-0.0909796630859375,9.8449572265625
47186492000,0.0,0.0,0.0,-0.1484405029296875,-0.08140285644531249,9.859322436523437
47187487000,-1.7453292519943295e-08,0.0,0.0,-0.16759411621093748,-0.11013327636718749,9.883264453125
47188481000,-1.7453292519943295e-08,0.0,0.0,-0.1580173095703125,-0.181959326171875,9.907206469726562
47189476000,1.7453292519943295e-08,-1.7453292519943295e-08,0.0,-0.1580173095703125,-0.22505495605468748,9.907206469726562
47190472000,-1.7453292519943295e-08,1.7453292519943295e-08,0.0,-0.1771709228515625,-0.27293898925781246,9.916783276367187
47191466000,0.0,0.0,0.0,-0.16759411621093748,-0.32082302246093747,9.916783276367187
47192463000,0.0,-1.7453292519943295e-08,1.7453292519943295e-08,-0.16759411621093748,-0.33039982910156246,9.911994873046874
47193458000,-1.7453292519943295e-08,0.0,0.0,-0.181959326171875,-0.36391865234375,9.935936889648437
47194453000,1.7453292519943295e-08,0.0,1.7453292519943295e-08,-0.16280571289062498,-0.39264907226562495,9.9215716796875
47195448000,0.0,-1.7453292519943295e-08,0.0,-0.15322890625,-0.33518823242187495,9.888052856445311
47196443000,0.0,0.0,0.0,-0.1388636962890625,-0.33518823242187495,9.873687646484374
47197437000,0.0,-1.7453292519943295e-08,0.0,-0.1197100830078125,-0.3399766357421875,9.82580361328125
47198435000,0.0,0.0,0.0,-0.0909796630859375,-0.32082302246093747,9.797073193359374
47199430000,1.7453292519943295e-08,0.0,0.0,-0.08140285644531249,-0.32082302246093747,9.782707983398437
47200425000,-1.7453292519943295e-08,0.0,0.0,-0.06703764648437499,-0.2920926025390625,9.758765966796874
47201422000,1.7453292519943295e-08,1.7453292519943295e-08,0.0,-0.05746083984375,-0.27293898925781246,9.758765966796874
47202415000,-1.7453292519943295e-08,0.0,0.0,-0.06703764648437499,-0.239420166015625,9.744400756835937
47203410000,-1.7453292519943295e-08,1.7453292519943295e-08,0.0,-0.0526724365234375,-0.19153613281249998,9.734823950195311
47204407000,1.7453292519943295e-08,0.0,0.0,-0.062249243164062495,-0.17238251953125,9.753977563476562
47205402000,-3.490658503988659e-08,1.7453292519943295e-08,0.0,-0.05746083984375,-0.16280571289062498,9.739612353515625
47206399000,1.7453292519943295e-08,0.0,0.0,-0.05746083984375,-0.16280571289062498,9.739612353515625
47207392000,-1.7453292519943295e-08,0.0,0.0,-0.062249243164062495,-0.17238251953125,9.730035546875
47208387000,0.0,1.7453292519943295e-08,0.0,-0.0718260498046875,-0.1484405029296875,9.734823950195311
47209383000,0.0,-1.7453292519943295e-08,0.0,-0.086191259765625,-0.1197100830078125,9.753977563476562
47210376000,0.0,0.0,0.0,-0.08140285644531249,-0.12449848632812499,9.782707983398437
47211373000,1.7453292519943295e-08,-3.490658503988659e-08,0.0,-0.086191259765625,-0.08140285644531249,9.787496386718749
47212368000,-1.7453292519943295e-08,0.0,0.0,-0.09576806640624999,-0.05746083984375,9.787496386718749
47213363000,0.0,-1.7453292519943295e-08,0.0,-0.06703764648437499,-0.0430956298828125,9.758765966796874
47214359000,1.7453292519943295e-08,-1.7453292519943295e-08,0.0,-0.047884033203124995,0.0143652099609375,9.701305126953125
47215353000,-1.7453292519943295e-08,0.0,0.0,-0.009576806640625,0.0526724365234375,9.682151513671874
47216350000,3.490658503988659e-08,0.0,0.0,0.028730419921875,0.0718260498046875,9.662997900390625
47217343000,0.0,0.0,0.0,0.06703764648437499,0.1149216796875,9.65342109375
47218338000,0.0,1.7453292519943295e-08,-1.7453292519943295e-08,0.11013327636718749,0.08140285644531249,9.662997900390625
47219333000,0.0,1.7453292519943295e-08,1.7453292519943295e-08,0.1388636962890625,0.08140285644531249,9.648632690429688
47220328000,-1.7453292519943295e-08,1.7453292519943295e-08,0.0,0.1388636962890625,0.08140285644531249,9.643844287109374
47221323000,1.7453292519943295e-08,1.7453292519943295e-08,0.0,0.105344873046875,0.028730419921875,9.658209497070311
47222318000,-3.490658503988659e-08,1.7453292519943295e-08,1.7453292519943295e-08,0.0909796630859375,0.033518823242187495,9.715670336914062
47223313000,1.7453292519943295e-08,3.490658503988659e-08,0.0,0.06703764648437499,0.023942016601562498,9.763554370117188
47224308000,-3.490658503988659e-08,0.0,1.7453292519943295e-08,0.0047884033203125,-0.0047884033203125,9.80665
47225303000,-1.7453292519943295e-08,1.7453292519943295e-08,0.0,-0.01915361328125,-0.009576806640625,9.840168823242188
47226298000,0.0,-1.7453292519943295e-08,0.0,-0.08140285644531249,-0.009576806640625,9.835380419921874
47227293000,-3.490658503988659e-08,0.0,0.0,-0.143652099609375,-0.0383072265625,9.830592016601562
47228287000,3.490658503988659e-08,-3.490658503988659e-08,0.0,-0.16759411621093748,-0.06703764648437499,9.82580361328125
47229283000,1.7453292519943295e-08,-3.490658503988659e-08,-1.7453292519943295e-08,-0.181959326171875,-0.076614453125,9.801861596679688
47230278000,0.0,-1.7453292519943295e-08,-1.7453292519943295e-08,-0.181959326171875,-0.076614453125,9.801861596679688
47231273000,3.490658503988659e-08,-5.235987755982989e-08,0.0,-0.17238251953125,-0.086191259765625,9.787496386718749
47232268000,0.0,-1.7453292519943295e-08,0.0,-0.105344873046875,-0.076614453125,9.7683427734375
47233262000,1.7453292519943295e-08,0.0,0.0,-0.033518823242187495,-0.0526724365234375,9.715670336914062
47234257000,0.0,1.7453292519943295e-08,1.7453292519943295e-08,0.028730419921875,-0.023942016601562498,9.682151513671874
47235252000,-1.7453292519943295e-08,1.7453292519943295e-08,0.0,0.1005564697265625,-0.033518823242187495,9.677363110351562
47236248000,-1.7453292519943295e-08,3.490658503988659e-08,1.7453292519943295e-08,0.11013327636718749,-0.033518823242187495,9.6917283203125
47237243000,-3.490658503988659e-08,3.490658503988659e-08,1.7453292519943295e-08,0.09576806640624999,-0.08140285644531249,9.706093530273437
47238238000,-1.7453292519943295e-08,3.490658503988659e-08,1.7453292519943295e-08,0.0526724365234375,-0.143652099609375,9.720458740234374
47239233000,-1.7453292519943295e-08,3.490658503988659e-08,1.7453292519943295e-08,-0.009576806640625,-0.1771709228515625,9.739612353515625
47240227000,-1.7453292519943295e-08,1.7453292519943295e-08,0.0,-0.086191259765625,-0.2825157958984375,9.730035546875
47241222000,0.0,0.0,0.0,-0.12449848632812499,-0.3687070556640625,9.686939916992188
47242218000,0.0,-1.7453292519943295e-08,-1.7453292519943295e-08,-0.1197100830078125,-0.33039982910156246,9.658209497070311
47243213000,3.490658503988659e-08,-1.7453292519943295e-08,-1.7453292519943295e-08,-0.09576806640624999,-0.28730419921875,9.610325463867188
47244210000,1.7453292519943295e-08,-3.490658503988659e-08,-1.7453292519943295e-08,-0.062249243164062495,-0.24899697265624998,9.595960253906249
47245203000,1.7453292519943295e-08,-1.7453292519943295e-08,0.0,-0.0383072265625,-0.22026655273437498,9.629479077148437
47246198000,1.7453292519943295e-08,-1.7453292519943295e-08,0.0,-0.033518823242187495,-0.2154781494140625,9.682151513671874
47247192000,-1.7453292519943295e-08,0.0,1.7453292519943295e-08,-0.028730419921875,-0.2346317626953125,9.739612353515625
47248189000,-1.7453292519943295e-08,0.0,1.7453292519943295e-08,-0.0383072265625,-0.2442085693359375,9.7683427734375
47249183000,-1.7453292519943295e-08,1.7453292519943295e-08,1.7453292519943295e-08,-0.06703764648437499,-0.26336218261718747,9.758765966796874
47250178000,-1.7453292519943295e-08,1.7453292519943295e-08,1.7453292519943295e-08,-0.09576806640624999,-0.24899697265624998,9.730035546875
47251173000,0.0,0.0,-1.7453292519943295e-08,-0.09576806640624999,-0.24899697265624998,9.730035546875
47252168000,-1.7453292519943295e-08,1.7453292519943295e-08,0.0,-0.09576806640624999,-0.201112939453125,9.686939916992188
47253163000,1.7453292519943295e-08,0.0,-3.490658503988659e-08,-0.062249243164062495,-0.1867477294921875,9.634267480468749
47254159000,1.7453292519943295e-08,1.7453292519943295e-08,-1.7453292519943295e-08,-0.0047884033203125,-0.143652099609375,9.591171850585937
47255153000,1.7453292519943295e-08,0.0,0.0,0.047884033203124995,-0.13407529296874998,9.581595043945311
47256148000,1.7453292519943295e-08,0.0,1.7453292519943295e-08,0.076614453125,-0.1580173095703125,9.6151138671875
47257143000,0.0,0.0,1.7453292519943295e-08,0.0718260498046875,-0.19632453613281248,9.643844287109374
47258138000,-1.7453292519943295e-08,0.0,3.490658503988659e-08,0.01915361328125,-0.21068974609375,9.677363110351562
47259133000,-1.7453292519943295e-08,1.7453292519943295e-08,1.7453292519943295e-08,-0.047884033203124995,-0.26815058593749996,9.682151513671874
47260130000,-1.7453292519943295e-08,1.7453292519943295e-08,0.0,-0.09576806640624999,-0.277727392578125,9.682151513671874
47261123000,-1.7453292519943295e-08,1.7453292519943295e-08,0.0,-0.11013327636718749,-0.22026655273437498,9.710881933593749
47262118000,-1.7453292519943295e-08,1.7453292519943295e-08,-3.490658503988659e-08,-0.0718260498046875,-0.1580173095703125,9.730035546875
47263113000,0.0,3.490658503988659e-08,-3.490658503988659e-08,-0.028730419921875,-0.1484405029296875,9.734823950195311
47264108000,-1.7453292519943295e-08,1.7453292519943295e-08,-1.7453292519943295e-08,0.009576806640625,-0.17238251953125,9.744400756835937
47265102000,0.0,0.0,-1.7453292519943295e-08,-0.0143652099609375,-0.2059013427734375,9.720458740234374
47266097000,0.0,-1.7453292519943295e-08,0.0,-0.0909796630859375,-0.2346317626953125,9.6917283203125
47267092000,0.0,-1.7453292519943295e-08,0.0,-0.1388636962890625,-0.24899697265624998,9.643844287109374
47268087000,1.7453292519943295e-08,-1.7453292519943295e-08,1.7453292519943295e-08,-0.143652099609375,-0.2154781494140625,9.591171850585937
47269082000,0.0,0.0,1.7453292519943295e-08,-0.076614453125,-0.16280571289062498,9.572018237304688
47270079000,0.0,0.0,1.7453292519943295e-08,0.009576806640625,-0.11013327636718749,9.572018237304688
47271071000,0.0,1.7453292519943295e-08,1.7453292519943295e-08,0.076614453125,-0.0718260498046875,9.591171850585937
47272066000,0.0,1.7453292519943295e-08,1.7453292519943295e-08,0.076614453125,-0.0909796630859375,9.600748657226562
47273062000,0.0,0.0,1.7453292519943295e-08,0.009576806640625,-0.11013327636718749,9.586383447265625
47274057000,0.0,0.0,0.0,-0.076614453125,-0.0718260498046875,9.557653027343749
47275052000,0.0,0.0,0.0,-0.0909796630859375,-0.023942016601562498,9.543287817382812
47276048000,0.0,0.0,0.0,-0.009576806640625,-0.009576806640625,9.586383447265625
47277041000,-1.7453292519943295e-08,1.7453292519943295e-08,0.0,-0.009576806640625,-0.009576806640625,9.586383447265625
47278036000,-1.7453292519943295e-08,3.490658503988659e-08,0.0,0.0718260498046875,-0.0909796630859375,9.672574707031249
47279032000,-1.7453292519943295e-08,3.490658503988659e-08,-1.7453292519943295e-08,0.05746083984375,-0.1867477294921875,9.706093530273437
47280027000,-1.7453292519943295e-08,3.490658503988659e-08,-1.7453292519943295e-08,-0.06703764648437499,-0.2346317626953125,9.682151513671874
47281023000,-1.7453292519943295e-08,3.490658503988659e-08,-1.7453292519943295e-08,-0.1771709228515625,-0.19632453613281248,9.634267480468749
47282016000,-3.490658503988659e-08,3.490658503988659e-08,-1.7453292519943295e-08,-0.1580173095703125,-0.15322890625,9.624690673828125
47283011000,-3.490658503988659e-08,3.490658503988659e-08,-1.7453292519943295e-08,-0.047884033203124995,-0.16759411621093748,9.65342109375
47284006000,-3.490658503988659e-08,1.7453292519943295e-08,0.0,0.028730419921875,-0.2442085693359375,9.720458740234374
47285002000,-1.7453292519943295e-08,1.7453292519943295e-08,1.7453292519943295e-08,-0.028730419921875,-0.3112462158203125,9.715670336914062
47285996000,0.0,0.0,3.490658503988659e-08,-0.17238251953125,-0.26336218261718747,9.667786303710937
47286991000,1.7453292519943295e-08,0.0,3.490658503988659e-08,-0.21068974609375,-0.1388636962890625,9.648632690429688
47287986000,3.490658503988659e-08,0.0,5.235987755982989e-08,-0.076614453125,-0.0718260498046875,9.696516723632811
47288981000,3.490658503988659e-08,0.0,5.235987755982989e-08,0.0526724365234375,-0.17238251953125,9.782707983398437
47289976000,1.7453292519943295e-08,0.0,3.490658503988659e-08,0.0383072265625,-0.3399766357421875,9.868899243164062
47290973000,0.0,0.0,3.490658503988659e-08,-0.086191259765625,-0.354341845703125,9.873687646484374
47291966000,0.0,0.0,0.0,-0.16280571289062498,-0.16280571289062498,9.80665
47292960000,-1.7453292519943295e-08,1.7453292519943295e-08,-1.7453292519943295e-08,-0.086191259765625,-0.01915361328125,9.7683427734375
47293955000,-3.490658503988659e-08,3.490658503988659e-08,-5.235987755982989e-08,0.0526724365234375,-0.0909796630859375,9.821015209960937
47294950000,-5.235987755982989e-08,6.981317007977318e-08,-5.235987755982989e-08,0.0430956298828125,-0.2346317626953125,9.897629663085937
47295945000,-5.235987755982989e-08,8.726646259971647e-08,-6.981317007977318e-08,-0.11013327636718749,-0.1867477294921875,9.907206469726562
47296940000,-3.490658503988659e-08,8.726646259971647e-08,-5.235987755982989e-08,-0.1867477294921875,0.0383072265625,9.873687646484374
47297935000,-3.490658503988659e-08,5.235987755982989e-08,-5.235987755982989e-08,-0.0718260498046875,0.1484405029296875,9.868899243164062
47298930000,-5.235987755982989e-08,5.235987755982989e-08,-1.7453292519943295e-08,0.0718260498046875,0.0143652099609375,9.868899243164062
47299926000,-5.235987755982989e-08,5.235987755982989e-08,1.7453292519943295e-08,0.06703764648437499,-0.09576806640624999,9.840168823242188
47300920000,-3.490658503988659e-08,5.235987755982989e-08,5.235987755982989e-08,0.06703764648437499,-0.09576806640624999,9.840168823242188
47301915000,-1.7453292519943295e-08,3.490658503988659e-08,6.981317007977318e-08,-0.0430956298828125,0.0526724365234375,9.86411083984375
47302909000,0.0,1.7453292519943295e-08,8.726646259971647e-08,-0.062249243164062495,0.2346317626953125,9.916783276367187
47303905000,0.0,1.7453292519943295e-08,8.726646259971647e-08,0.0526724365234375,0.19153613281249998,9.926360083007811
47304900000,-1.7453292519943295e-08,5.235987755982989e-08,8.726646259971647e-08,0.09576806640624999,0.076614453125,9.868899243164062
47305895000,0.0,8.726646259971647e-08,5.235987755982989e-08,0.009576806640625,0.2154781494140625,9.892841259765625
47306889000,-1.7453292519943295e-08,6.981317007977318e-08,1.7453292519943295e-08,-0.076614453125,0.3495534423828125,10.036493359375
47307884000,-5.235987755982989e-08,5.235987755982989e-08,-3.490658503988659e-08,-0.086191259765625,0.19153613281249998,10.0748005859375
47308879000,-8.726646259971647e-08,6.981317007977318e-08,-6.981317007977318e-08,-0.009576806640625,0.047884033203124995,9.935936889648437
47309874000,-8.726646259971647e-08,8.726646259971647e-08,-8.726646259971647e-08,0.08140285644531249,0.16759411621093748,9.849745629882811
47310870000,-5.235987755982989e-08,1.0471975511965977e-07,-8.726646259971647e-08,0.06703764648437499,0.316034619140625,9.950302099609374
47311865000,-3.490658503988659e-08,8.726646259971647e-08,-1.0471975511965977e-07,-0.05746083984375,0.24899697265624998,9.9981861328125
47312861000,-1.7453292519943295e-08,3.490658503988659e-08,-8.726646259971647e-08,-0.06703764648437499,0.086191259765625,9.830592016601562
47313854000,-3.490658503988659e-08,1.7453292519943295e-08,-3.490658503988659e-08,0.105344873046875,0.19632453613281248,9.672574707031249
47314849000,-1.7453292519943295e-08,3.490658503988659e-08,1.7453292519943295e-08,0.21068974609375,0.38307226562499996,9.715670336914062
47315846000,5.235987755982989e-08,5.235987755982989e-08,6.981317007977318e-08,0.0383072265625,0.3016694091796875,9.6917283203125
47316840000,5.235987755982989e-08,6.981317007977318e-08,8.726646259971647e-08,-0.047884033203124995,0.201112939453125,9.476250170898437
47317834000,1.7453292519943295e-08,8.726646259971647e-08,1.0471975511965977e-07,0.22026655273437498,0.37828386230468747,9.351751684570312
47318829000,-1.7453292519943295e-08,1.2217304763960305e-07,1.0471975511965977e-07,0.49320554199218747,0.45489831542968745,9.457096557617186
47319824000,-5.235987755982989e-08,1.7453292519943294e-07,8.726646259971647e-08,0.3016694091796875,0.17238251953125,9.476250170898437
47320819000,-5.235987755982989e-08,1.7453292519943294e-07,1.7453292519943295e-08,0.062249243164062495,-0.0047884033203125,9.332598071289063
47321815000,-8.726646259971647e-08,1.7453292519943294e-07,0.0,0.21068974609375,0.1197100830078125,9.394847314453125
47322809000,-1.5707963267948966e-07,1.7453292519943294e-07,-3.490658503988659e-08,0.38786066894531246,0.086191259765625,9.734823950195311
47323807000,-1.7453292519943294e-07,1.5707963267948966e-07,-5.235987755982989e-08,0.38786066894531246,0.086191259765625,9.734823950195311
47324799000,-1.5707963267948966e-07,1.2217304763960305e-07,-6.981317007977318e-08,0.15322890625,-0.09576806640624999,9.888052856445311
47325794000,-1.0471975511965977e-07,8.726646259971647e-08,-5.235987755982989e-08,0.239420166015625,0.05746083984375,10.041281762695311
47326790000,-6.981317007977318e-08,1.0471975511965977e-07,-1.7453292519943295e-08,0.49799394531249996,0.21068974609375,10.309432348632813
47327784000,-3.490658503988659e-08,1.3962634015954636e-07,5.235987755982989e-08,0.43574470214843747,0.1149216796875,10.32379755859375
47328779000,1.7453292519943295e-08,1.5707963267948966e-07,5.235987755982989e-08,0.22505495605468748,0.1580173095703125,10.036493359375
47329774000,6.981317007977318e-08,1.5707963267948966e-07,5.235987755982989e-08,0.3447650390625,0.3064578125,9.945513696289062
47330769000,8.726646259971647e-08,1.7453292519943294e-07,8.726646259971647e-08,0.4836287353515625,0.1149216796875,10.117896215820313
47331765000,1.0471975511965977e-07,2.443460952792061e-07,8.726646259971647e-08,0.277727392578125,-0.2154781494140625,10.05564697265625
47332759000,6.981317007977318e-08,2.792526803190927e-07,3.490658503988659e-08,0.3016694091796875,-0.1005564697265625,10.084377392578125
47333753000,5.235987755982989e-08,2.2689280275926283e-07,-1.7453292519943295e-08,0.612915625,-0.01915361328125,10.409988818359375
47334748000,0.0,1.9198621771937624e-07,-3.490658503988659e-08,0.55545478515625,-0.24899697265624998,10.491391674804687
47335744000,-3.490658503988659e-08,1.9198621771937624e-07,-1.7453292519943295e-08,0.26336218261718747,-0.201112939453125,10.20887587890625
47336739000,-3.490658503988659e-08,1.9198621771937624e-07,-1.7453292519943295e-08,0.3495534423828125,0.0526724365234375,10.204087475585936
47337734000,-1.0471975511965977e-07,1.5707963267948966e-07,-5.235987755982989e-08,0.44053310546874996,0.0,10.433930834960936
47338729000,-1.2217304763960305e-07,1.5707963267948966e-07,0.0,0.19632453613281248,-0.1388636962890625,10.28549033203125
47339724000,-8.726646259971647e-08,2.0943951023931955e-07,6.981317007977318e-08,0.2537853759765625,0.009576806640625,10.189722265624999
47340723000,-6.981317007977318e-08,2.792526803190927e-07,6.981317007977318e-08,0.45010991210937495,-0.105344873046875,10.429142431640624
47341714000,-5.235987755982989e-08,3.490658503988659e-07,5.235987755982989e-08,0.316034619140625,-0.3399766357421875,10.414777221679687
47342709000,-3.490658503988659e-08,4.014257279586958e-07,3.490658503988659e-08,0.26815058593749996,-0.2154781494140625,10.232817895507813
47343704000,-3.490658503988659e-08,4.5378560551852565e-07,3.490658503988659e-08,0.45968671875,-0.16280571289062498,10.40041201171875
47344699000,3.490658503988659e-08,4.7123889803846896e-07,1.7453292519943295e-08,0.45968671875,-0.16280571289062498,10.40041201171875
47345696000,3.490658503988659e-08,4.7123889803846896e-07,-1.7453292519943295e-08,0.2825157958984375,-0.3447650390625,10.51533369140625
47346690000,1.7453292519943295e-08,4.5378560551852565e-07,-3.490658503988659e-08,0.1388636962890625,-0.22026655273437498,10.352527978515624
47347684000,1.7453292519943295e-08,4.5378560551852565e-07,-1.7453292519943295e-08,0.3064578125,-0.01915361328125,10.448296044921875
47348679000,3.490658503988659e-08,4.3633231299858235e-07,1.7453292519943295e-08,0.21068974609375,0.0,10.47702646484375
47349674000,1.7453292519943295e-08,4.3633231299858235e-07,3.490658503988659e-08,0.0718260498046875,0.15322890625,10.194510668945313
47350670000,0.0,4.886921905584122e-07,3.490658503988659e-08,0.258573779296875,0.3112462158203125,10.0748005859375
47351664000,1.7453292519943295e-08,5.410520681182422e-07,3.490658503988659e-08,0.32082302246093747,0.11013327636718749,10.103531005859374
47352659000,1.7453292519943295e-08,5.93411945678072e-07,1.7453292519943295e-08,0.2154781494140625,0.023942016601562498,9.931148486328125
47353654000,1.7453292519943295e-08,6.457718232379019e-07,-1.7453292519943295e-08,0.316034619140625,0.19153613281249998,9.90241806640625
47354651000,1.7453292519943295e-08,6.981317007977318e-07,-5.235987755982989e-08,0.2920926025390625,0.062249243164062495,10.070012182617187
47355644000,1.7453292519943295e-08,6.981317007977318e-07,-6.981317007977318e-08,0.0143652099609375,0.0430956298828125,10.041281762695311
47356639000,1.7453292519943295e-08,6.981317007977318e-07,-5.235987755982989e-08,-0.0143652099609375,0.22505495605468748,10.084377392578125
47357634000,0.0,7.330382858376184e-07,-3.490658503988659e-08,0.033518823242187495,0.26336218261718747,10.314220751953124
47358629000,3.490658503988659e-08,7.67944870877505e-07,-1.7453292519943295e-08,-0.15322890625,0.27293898925781246,10.333374365234375
47359623000,1.7453292519943295e-08,7.853981633974482e-07,0.0,-0.2154781494140625,0.4213794921875,10.228029492187499
47360619000,0.0,8.203047484373348e-07,0.0,-0.033518823242187495,0.38786066894531246,10.338162768554687
47361614000,-1.7453292519943295e-08,8.552113334772214e-07,0.0,0.0143652099609375,0.1580173095703125,10.347739575195313
47362609000,0.0,8.552113334772214e-07,-1.7453292519943295e-08,-0.0383072265625,0.06703764648437499,10.184933862304687
47363603000,1.7453292519943295e-08,8.726646259971647e-07,-1.7453292519943295e-08,0.09576806640624999,0.0047884033203125,10.295067138671874
47364598000,3.490658503988659e-08,8.90117918517108e-07,-3.490658503988659e-08,0.0526724365234375,-0.1197100830078125,10.309432348632813
47365593000,5.235987755982989e-08,9.250245035569947e-07,-3.490658503988659e-08,-0.1197100830078125,-0.076614453125,10.01733974609375
47366589000,5.235987755982989e-08,9.773843811168244e-07,-3.490658503988659e-08,-0.0143652099609375,0.0430956298828125,9.931148486328125
47367584000,3.490658503988659e-08,9.948376736367678e-07,-3.490658503988659e-08,0.11013327636718749,-0.033518823242187495,9.97903251953125
47368579000,1.7453292519943295e-08,9.773843811168244e-07,-1.7453292519943295e-08,0.0,-0.105344873046875,9.868899243164062
47369574000,0.0,9.773843811168244e-07,-1.7453292519943295e-08,0.0,-0.105344873046875,9.868899243164062
47370568000,-1.7453292519943295e-08,9.773843811168244e-07,-1.7453292519943295e-08,0.11013327636718749,-0.0718260498046875,9.9981861328125
47371564000,0.0,9.948376736367678e-07,-1.7453292519943295e-08,0.2154781494140625,-0.2154781494140625,10.299855541992187
47372559000,1.7453292519943295e-08,1.0122909661567111e-06,-3.490658503988659e-08,0.0430956298828125,-0.22026655273437498,10.184933862304687
47373554000,1.7453292519943295e-08,1.0471975511965976e-06,-3.490658503988659e-08,0.08140285644531249,-0.028730419921875,10.084377392578125
47374549000,1.7453292519943295e-08,1.0297442586766543e-06,-1.7453292519943295e-08,0.239420166015625,0.062249243164062495,10.17056865234375
47375544000,0.0,1.0297442586766543e-06,-1.7453292519943295e-08,0.1292868896484375,0.076614453125,10.108319409179687
47376539000,-3.490658503988659e-08,1.0122909661567111e-06,0.0,0.2154781494140625,0.13407529296874998,10.204087475585936
47377534000,-5.235987755982989e-08,1.0122909661567111e-06,0.0,0.40222587890625,0.0047884033203125,10.577582934570312
47378528000,-3.490658503988659e-08,1.0471975511965976e-06,-1.7453292519943295e-08,0.26336218261718747,-0.2154781494140625,10.658985791015624
47379523000,1.7453292519943295e-08,1.0995574287564275e-06,-1.7453292519943295e-08,0.033518823242187495,-0.143652099609375,10.448296044921875
47380518000,3.490658503988659e-08,1.1170107212763709e-06,-1.7453292519943295e-08,0.086191259765625,0.01915361328125,10.419565624999999
47381513000,1.7453292519943295e-08,1.1170107212763709e-06,0.0,0.08140285644531249,0.08140285644531249,10.390835205078124
47382508000,-3.490658503988659e-08,1.0995574287564275e-06,0.0,-0.047884033203124995,0.086191259765625,10.156203442382813
47383502000,-5.235987755982989e-08,1.1170107212763709e-06,-1.7453292519943295e-08,0.05746083984375,-0.033518823242187495,10.20887587890625
47384497000,-6.981317007977318e-08,1.1170107212763709e-06,-1.7453292519943295e-08,0.0909796630859375,-0.354341845703125,10.275913525390624
47385492000,-3.490658503988659e-08,1.1170107212763709e-06,-3.490658503988659e-08,-0.201112939453125,-0.45010991210937495,9.964667309570311
47386489000,3.490658503988659e-08,1.1170107212763709e-06,-3.490658503988659e-08,-0.3016694091796875,-0.1867477294921875,9.897629663085937
47387482000,5.235987755982989e-08,1.0995574287564275e-06,-1.7453292519943295e-08,-0.1484405029296875,0.033518823242187495,10.151415039062499
47388476000,1.7453292519943295e-08,1.0995574287564275e-06,-1.7453292519943295e-08,-0.22505495605468748,-0.0047884033203125,10.17056865234375
47389473000,-5.235987755982989e-08,1.0821041362364843e-06,-1.7453292519943295e-08,-0.3399766357421875,-0.19153613281249998,9.988609326171874
47390466000,-6.981317007977318e-08,1.064650843716541e-06,-5.235987755982989e-08,-0.22026655273437498,-0.4213794921875,10.084377392578125
47391461000,-5.235987755982989e-08,1.064650843716541e-06,-5.235987755982989e-08,-0.22026655273437498,-0.4213794921875,10.084377392578125
47392455000,1.7453292519943295e-08,1.0471975511965976e-06,-5.235987755982989e-08,-0.45968671875,-0.32082302246093747,10.065223779296874
47393450000,5.235987755982989e-08,1.0471975511965976e-06,-5.235987755982989e-08,-0.5698199951171875,0.11013327636718749,10.13226142578125
47394445000,3.490658503988659e-08,1.0297442586766543e-06,-3.490658503988659e-08,-0.32082302246093747,0.4213794921875,10.386046801757812
47395440000,-1.7453292519943295e-08,1.0297442586766543e-06,-3.490658503988659e-08,-0.36391865234375,0.1867477294921875,10.175357055664062
47396435000,-5.235987755982989e-08,1.0122909661567111e-06,-3.490658503988659e-08,-0.5602431884765625,-0.0143652099609375,9.90241806640625
47397430000,-3.490658503988659e-08,9.948376736367678e-07,-3.490658503988659e-08,-0.5410895751953124,0.13407529296874998,10.122684619140625
47398425000,0.0,9.773843811168244e-07,-1.7453292519943295e-08,-0.6081272216796875,0.43574470214843747,10.352527978515624
47399420000,1.7453292519943295e-08,9.773843811168244e-07,0.0,-0.7613561279296874,0.74699091796875,10.13226142578125
47400414000,0.0,9.599310885968813e-07,0.0,-0.5267243652343749,0.6751648681640625,9.950302099609374
47401412000,-5.235987755982989e-08,9.599310885968813e-07,1.7453292519943295e-08,-0.2825157958984375,0.2154781494140625,9.835380419921874
47402404000,-6.981317007977318e-08,9.599310885968813e-07,1.7453292519943295e-08,-0.5123591552734374,-0.15322890625,9.605537060546874
47403399000,-5.235987755982989e-08,9.599310885968813e-07,1.7453292519943295e-08,-0.679953271484375,0.0909796630859375,9.648632690429688
47404394000,-3.490658503988659e-08,9.424777960769379e-07,1.7453292519943295e-08,-0.5315127685546874,0.612915625,10.022128149414062
47405389000,-1.7453292519943295e-08,9.599310885968813e-07,3.490658503988659e-08,-0.4644751220703125,0.5746083984375,9.80665
47406384000,-5.235987755982989e-08,9.948376736367678e-07,5.235987755982989e-08,-0.45489831542968745,0.2442085693359375,9.600748657226562
47407378000,-1.0471975511965977e-07,1.0297442586766543e-06,3.490658503988659e-08,-0.4070142822265625,-0.0047884033203125,9.911994873046874
47408373000,-1.2217304763960305e-07,1.0122909661567111e-06,3.490658503988659e-08,-0.603338818359375,0.105344873046875,10.180145458984374
47409370000,-8.726646259971647e-08,9.773843811168244e-07,1.7453292519943295e-08,-0.8188169677734375,0.5363011718749999,10.117896215820313
47410363000,-3.490658503988659e-08,9.599310885968813e-07,3.490658503988659e-08,-0.5746083984375,0.814028564453125,10.065223779296874
47411358000,-5.235987755982989e-08,9.948376736367678e-07,3.490658503988659e-08,-0.3016694091796875,0.45489831542968745,9.868899243164062
47412353000,-8.726646259971647e-08,1.0122909661567111e-06,3.490658503988659e-08,-0.4740519287109375,-0.0909796630859375,9.610325463867188
47413347000,-1.2217304763960305e-07,1.0297442586766543e-06,1.7453292519943295e-08,-0.622492431640625,-0.11013327636718749,9.8449572265625
47414342000,-8.726646259971647e-08,1.0122909661567111e-06,-1.7453292519943295e-08,-0.622492431640625,-0.11013327636718749,9.8449572265625
47415337000,-3.490658503988659e-08,9.948376736367678e-07,-1.7453292519943295e-08,-0.5698199951171875,0.12449848632812499,9.983820922851562
47416332000,-3.490658503988659e-08,9.773843811168244e-07,0.0,-0.51714755859375,0.023942016601562498,9.457096557617186
47417327000,-5.235987755982989e-08,9.773843811168244e-07,0.0,-0.49320554199218747,-0.37828386230468747,9.251195214843749
47418322000,-6.981317007977318e-08,9.773843811168244e-07,0.0,-0.5698199951171875,-0.5746083984375,9.696516723632811
47419319000,-1.7453292519943295e-08,9.599310885968813e-07,-1.7453292519943295e-08,-0.9050082275390624,-0.59376201171875,10.002974536132811
47420312000,3.490658503988659e-08,9.424777960769379e-07,-3.490658503988659e-08,-1.0678139404296874,-0.26815058593749996,9.955090502929687
47421307000,5.235987755982989e-08,9.424777960769379e-07,-1.7453292519943295e-08,-0.833182177734375,-0.1197100830078125,9.897629663085937
47422304000,-1.7453292519943295e-08,9.424777960769379e-07,1.7453292519943295e-08,-0.852335791015625,-0.5123591552734374,9.82580361328125
47423297000,-3.490658503988659e-08,9.599310885968813e-07,0.0,-1.1348515869140625,-0.7900865478515624,9.969455712890625
47424292000,0.0,9.773843811168244e-07,-3.490658503988659e-08,-1.158793603515625,-0.4261678955078125,10.199299072265624
47425287000,8.726646259971647e-08,9.773843811168244e-07,-3.490658503988659e-08,-1.024718310546875,-0.143652099609375,9.897629663085937
47426282000,5.235987755982989e-08,9.599310885968813e-07,-1.7453292519943295e-08,-0.948103857421875,-0.2346317626953125,9.447519750976562
47427278000,-3.490658503988659e-08,9.773843811168244e-07,-1.7453292519943295e-08,-0.7517793212890624,-0.1867477294921875,9.701305126953125
47428272000,-8.726646259971647e-08,9.773843811168244e-07,0.0,-0.737414111328125,-0.16759411621093748,10.050858569335936
47429267000,-3.490658503988659e-08,9.599310885968813e-07,0.0,-0.9959878906249999,-0.201112939453125,9.730035546875
47430262000,8.726646259971647e-08,9.599310885968813e-07,0.0,-0.93852705078125,0.062249243164062495,9.452308154296874
47431256000,1.0471975511965977e-07,9.599310885968813e-07,1.7453292519943295e-08,-0.5985504150390625,0.2537853759765625,9.586383447265625
47432253000,-3.490658503988659e-08,9.773843811168244e-07,0.0,-0.603338818359375,-0.1005564697265625,9.720458740234374
47433246000,-1.0471975511965977e-07,9.599310885968813e-07,0.0,-0.7805097412109374,-0.1197100830078125,9.80665
47434241000,-8.726646259971647e-08,9.250245035569947e-07,1.7453292519943295e-08,-0.7805097412109374,-0.1197100830078125,9.80665
47435236000,3.490658503988659e-08,9.424777960769379e-07,1.7453292519943295e-08,-0.7422025146484375,0.1771709228515625,9.65342109375
47436231000,8.726646259971647e-08,9.773843811168244e-07,1.7453292519943295e-08,-0.7517793212890624,-0.023942016601562498,9.356540087890625
47437227000,-3.490658503988659e-08,9.773843811168244e-07,5.235987755982989e-08,-0.718260498046875,-0.277727392578125,9.452308154296874
47438221000,-1.2217304763960305e-07,9.599310885968813e-07,3.490658503988659e-08,-0.5889736083984375,-0.0143652099609375,9.849745629882811
47439215000,-6.981317007977318e-08,9.250245035569947e-07,1.7453292519943295e-08,-0.7134720947265625,-0.105344873046875,9.600748657226562
47440210000,3.490658503988659e-08,9.075712110370513e-07,5.235987755982989e-08,-0.948103857421875,-0.354341845703125,9.04050546875
47441208000,1.2217304763960305e-07,9.250245035569947e-07,5.235987755982989e-08,-0.814028564453125,-0.32561142578124996,9.069235888671875
47442202000,0.0,9.599310885968813e-07,3.490658503988659e-08,-0.612915625,-0.45968671875,9.423577734375
47443196000,-1.0471975511965977e-07,9.424777960769379e-07,1.7453292519943295e-08,-0.7326257080078125,-0.6464344482421874,9.337386474609374
47444190000,-8.726646259971647e-08,8.90117918517108e-07,0.0,-0.842758984375,-0.2537853759765625,9.169792358398437
47445185000,1.7453292519943295e-08,8.552113334772214e-07,1.7453292519943295e-08,-0.737414111328125,0.0047884033203125,9.303867651367186
47446182000,6.981317007977318e-08,8.726646259971647e-07,5.235987755982989e-08,-0.699106884765625,-0.5458779785156249,9.423577734375
47447175000,-1.7453292519943295e-08,9.250245035569947e-07,3.490658503988659e-08,-0.5985504150390625,-0.4165910888671875,9.595960253906249
47448170000,-1.3962634015954636e-07,9.250245035569947e-07,1.7453292519943295e-08,-0.45489831542968745,0.44053310546874996,9.792284790039062
47449165000,-1.0471975511965977e-07,8.552113334772214e-07,0.0,-0.5793968017578125,0.5602431884765625,9.801861596679688
47450160000,0.0,8.028514559173916e-07,3.490658503988659e-08,-0.6512228515624999,0.28730419921875,9.7683427734375
47451155000,0.0,8.028514559173916e-07,6.981317007977318e-08,-0.4213794921875,0.4644751220703125,9.859322436523437
47452151000,-1.0471975511965977e-07,8.377580409572782e-07,3.490658503988659e-08,-0.36391865234375,0.5889736083984375,9.868899243164062
47453145000,-1.3962634015954636e-07,8.552113334772214e-07,0.0,-0.6416460449218749,0.6943184814453125,9.686939916992188
47454140000,-5.235987755982989e-08,8.552113334772214e-07,1.7453292519943295e-08,-0.6847416748046875,0.86191259765625,9.753977563476562
47455135000,-5.235987755982989e-08,8.377580409572782e-07,3.490658503988659e-08,-0.469263525390625,0.49799394531249996,9.897629663085937
47456129000,-8.726646259971647e-08,8.377580409572782e-07,5.235987755982989e-08,-0.469263525390625,0.49799394531249996,9.897629663085937
47457125000,-1.2217304763960305e-07,8.552113334772214e-07,3.490658503988659e-08,-0.5315127685546874,0.17238251953125,9.854534033203125
47458119000,-1.0471975511965977e-07,8.552113334772214e-07,1.7453292519943295e-08,-0.612915625,0.8092401611328125,10.070012182617187
47459114000,-5.235987755982989e-08,8.726646259971647e-07,3.490658503988659e-08,-0.51714755859375,1.1348515869140625,10.386046801757812
47460110000,-1.0471975511965977e-07,9.250245035569947e-07,5.235987755982989e-08,-0.5315127685546874,0.49320554199218747,10.046070166015625
47461105000,-1.5707963267948966e-07,9.250245035569947e-07,5.235987755982989e-08,-0.5123591552734374,0.565031591796875,9.715670336914062
47462100000,-1.5707963267948966e-07,8.726646259971647e-07,1.7453292519943295e-08,-0.38786066894531246,1.1875240234375,9.955090502929687
47463095000,-8.726646259971647e-08,8.377580409572782e-07,0.0,-0.44053310546874996,0.9337386474609375,10.079588989257813
47464090000,0.0,8.552113334772214e-07,1.7453292519943295e-08,-0.5267243652343749,0.5698199951171875,9.658209497070311
47465087000,-6.981317007977318e-08,9.424777960769379e-07,6.981317007977318e-08,-0.3495534423828125,0.8379705810546875,9.423577734375
47466080000,-1.5707963267948966e-07,9.424777960769379e-07,3.490658503988659e-08,-0.2059013427734375,0.9576806640625,9.677363110351562
47467075000,-5.235987755982989e-08,8.552113334772214e-07,0.0,-0.411802685546875,0.5506663818359374,9.782707983398437
47468070000,3.490658503988659e-08,8.028514559173916e-07,1.7453292519943295e-08,-0.3591302490234375,0.5985504150390625,9.8449572265625
47469065000,3.490658503988659e-08,8.552113334772214e-07,3.490658503988659e-08,-0.17238251953125,0.6560112548828124,10.127473022460936
47470059000,-1.7453292519943295e-08,9.250245035569947e-07,5.235987755982989e-08,-0.3112462158203125,0.5506663818359374,10.28549033203125
47471054000,-5.235987755982989e-08,9.250245035569947e-07,3.490658503988659e-08,-0.5123591552734374,0.622492431640625,10.108319409179687
47472050000,3.490658503988659e-08,8.377580409572782e-07,0.0,-0.3687070556640625,0.5698199951171875,10.0748005859375
47473044000,1.2217304763960305e-07,8.203047484373348e-07,3.490658503988659e-08,-0.2825157958984375,0.19632453613281248,10.20887587890625
47474039000,5.235987755982989e-08,8.90117918517108e-07,6.981317007977318e-08,-0.5027823486328125,0.16280571289062498,10.180145458984374
47475034000,-1.7453292519943295e-08,9.250245035569947e-07,5.235987755982989e-08,-0.622492431640625,0.5027823486328125,10.046070166015625
47476030000,1.7453292519943295e-08,8.726646259971647e-07,3.490658503988659e-08,-0.4740519287109375,0.3591302490234375,10.050858569335936
47477024000,0.0,8.377580409572782e-07,1.7453292519943295e-08,-0.51714755859375,0.1580173095703125,9.95987890625
47478019000,1.7453292519943295e-08,8.377580409572782e-07,3.490658503988659e-08,-0.622492431640625,0.4261678955078125,10.026916552734374
47479014000,-1.7453292519943295e-08,8.552113334772214e-07,5.235987755982989e-08,-0.603338818359375,0.63206923828125,10.28549033203125
47480009000,-1.0471975511965977e-07,8.377580409572782e-07,1.7453292519943295e-08,-0.603338818359375,0.63206923828125,10.28549033203125
47481005000,-6.981317007977318e-08,8.028514559173916e-07,0.0,-0.699106884765625,0.39264907226562495,10.290278735351562
47481999000,-3.490658503988659e-08,8.028514559173916e-07,0.0,-0.7852981445312499,0.411802685546875,10.031704956054687
47482993000,-1.0471975511965977e-07,8.028514559173916e-07,3.490658503988659e-08,-0.6416460449218749,0.5746083984375,10.007762939453125
47483989000,-1.5707963267948966e-07,7.67944870877505e-07,1.7453292519943295e-08,-0.7038952880859375,0.239420166015625,9.710881933593749
47484983000,-1.3962634015954636e-07,7.504915783575616e-07,0.0,-0.9241618408203125,-0.1580173095703125,9.227253198242186
47485979000,-1.3962634015954636e-07,7.67944870877505e-07,1.7453292519943295e-08,-0.7422025146484375,-0.009576806640625,9.303867651367186
47486973000,-1.0471975511965977e-07,7.853981633974482e-07,1.7453292519943295e-08,-0.37828386230468747,0.258573779296875,9.672574707031249
47487968000,-1.2217304763960305e-07,7.853981633974482e-07,1.7453292519943295e-08,-0.5506663818359374,0.0430956298828125,9.5001921875
47488963000,-1.7453292519943294e-07,7.67944870877505e-07,0.0,-0.8283937744140625,-0.3016694091796875,9.160215551757812
47489957000,-1.2217304763960305e-07,7.504915783575616e-07,-1.7453292519943295e-08,-0.5363011718749999,-0.1292868896484375,9.337386474609374
47490952000,-8.726646259971647e-08,7.504915783575616e-07,0.0,-0.45489831542968745,-0.09576806640624999,9.203311181640624
47491947000,-1.2217304763960305e-07,7.67944870877505e-07,-1.7453292519943295e-08,-0.8667010009765624,-0.45010991210937495,8.853757739257812
47492942000,-1.2217304763960305e-07,7.67944870877505e-07,-3.490658503988659e-08,-0.8762778076171874,-0.44053310546874996,9.050082275390624
47493937000,-8.726646259971647e-08,7.67944870877505e-07,-3.490658503988659e-08,-0.45489831542968745,-0.09576806640624999,9.490615380859374
47494932000,-6.981317007977318e-08,7.853981633974482e-07,-1.7453292519943295e-08,-0.49320554199218747,-0.2537853759765625,9.284714038085937
47495927000,-1.0471975511965977e-07,7.853981633974482e-07,-1.7453292519943295e-08,-0.9145850341796874,-0.5698199951171875,9.0021982421875
47496923000,-8.726646259971647e-08,7.504915783575616e-07,-1.7453292519943295e-08,-0.7996633544921875,-0.2825157958984375,9.351751684570312
47497918000,-3.490658503988659e-08,7.504915783575616e-07,-1.7453292519943295e-08,-0.40222587890625,-0.1149216796875,9.629479077148437
47498912000,0.0,7.853981633974482e-07,-1.7453292519943295e-08,-0.5985504150390625,-0.4261678955078125,9.303867651367186
47499907000,1.7453292519943295e-08,7.853981633974482e-07,-3.490658503988659e-08,-0.7278373046875,-0.38307226562499996,9.414000927734374
47500902000,0.0,7.67944870877505e-07,-1.7453292519943295e-08,-0.32082302246093747,-0.239420166015625,9.97903251953125
47501897000,0.0,7.504915783575616e-07,-3.490658503988659e-08,-0.15322890625,-0.5363011718749999,9.859322436523437
47502894000,1.7453292519943295e-08,7.67944870877505e-07,-1.7453292519943295e-08,-0.411802685546875,-0.49799394531249996,9.351751684570312
47503889000,6.981317007977318e-08,7.853981633974482e-07,0.0,-0.4644751220703125,-0.143652099609375,9.437942944335937
47504884000,6.981317007977318e-08,7.853981633974482e-07,-1.7453292519943295e-08,-0.22505495605468748,-0.3112462158203125,9.907206469726562
47505878000,1.7453292519943295e-08,7.67944870877505e-07,-1.7453292519943295e-08,-0.229843359375,-0.622492431640625,9.600748657226562
47506873000,0.0,7.67944870877505e-07,0.0,-0.373495458984375,-0.26815058593749996,9.145850341796875
47507868000,0.0,7.853981633974482e-07,0.0,-0.373495458984375,-0.0909796630859375,9.495403784179686
47508863000,0.0,7.67944870877505e-07,-1.7453292519943295e-08,-0.373495458984375,-0.0909796630859375,9.495403784179686
47509861000,1.7453292519943295e-08,7.504915783575616e-07,-1.7453292519943295e-08,-0.26815058593749996,-0.37828386230468747,9.548076220703125
47510856000,-3.490658503988659e-08,7.67944870877505e-07,0.0,-0.239420166015625,0.033518823242187495,9.05965908203125
47511850000,-3.490658503988659e-08,7.504915783575616e-07,-1.7453292519943295e-08,-0.28730419921875,0.5602431884765625,9.035717065429687
47512845000,-5.235987755982989e-08,7.330382858376184e-07,-1.7453292519943295e-08,-0.26336218261718747,0.43574470214843747,9.150638745117186
47513840000,-5.235987755982989e-08,7.155849933176751e-07,-3.490658503988659e-08,-0.19632453613281248,0.8044517578125,8.614337573242187
47514837000,-6.981317007977318e-08,7.330382858376184e-07,-1.7453292519943295e-08,-0.239420166015625,1.3215993164062498,8.384494213867187
47515832000,-5.235987755982989e-08,7.504915783575616e-07,0.0,-0.33518823242187495,1.0869675537109373,8.825027319335938
47516829000,-6.981317007977318e-08,7.155849933176751e-07,-1.7453292519943295e-08,-0.32561142578124996,0.7038952880859375,8.834604125976561
47517822000,-1.2217304763960305e-07,6.981317007977318e-07,-1.7453292519943295e-08,-0.17238251953125,0.9241618408203125,8.437166650390624
47518817000,-1.2217304763960305e-07,6.981317007977318e-07,1.7453292519943295e-08,-0.143652099609375,1.1013327636718748,8.590395556640624
47519812000,-8.726646259971647e-08,6.981317007977318e-07,1.7453292519943295e-08,-0.3064578125,0.7948749511718749,9.0788126953125
47520809000,-1.0471975511965977e-07,6.806784082777885e-07,-1.7453292519943295e-08,-0.33039982910156246,0.8571241943359375,9.054870678710937
47521804000,-1.2217304763960305e-07,6.806784082777885e-07,-1.7453292519943295e-08,-0.22026655273437498,1.139639990234375,9.02135185546875
47522799000,-1.2217304763960305e-07,6.806784082777885e-07,0.0,-0.316034619140625,1.0295067138671874,9.227253198242186
47523794000,-1.0471975511965977e-07,6.632251157578451e-07,0.0,-0.4836287353515625,0.5267243652343749,9.2320416015625
47524788000,-8.726646259971647e-08,6.457718232379019e-07,-1.7453292519943295e-08,-0.3399766357421875,0.4740519287109375,9.05965908203125
47525783000,-1.0471975511965977e-07,6.457718232379019e-07,-3.490658503988659e-08,-0.1292868896484375,0.7805097412109374,9.212887988281249
47526778000,-1.2217304763960305e-07,6.457718232379019e-07,-1.7453292519943295e-08,-0.277727392578125,0.6751648681640625,9.490615380859374
47527776000,-8.726646259971647e-08,6.632251157578451e-07,-1.7453292519943295e-08,-0.277727392578125,0.6751648681640625,9.490615380859374
47528771000,-5.235987755982989e-08,6.283185307179586e-07,-3.490658503988659e-08,-0.3399766357421875,0.4644751220703125,9.442731347656249
47529767000,-8.726646259971647e-08,6.283185307179586e-07,-3.490658503988659e-08,-0.01915361328125,0.7517793212890624,9.093177905273437
47530760000,-8.726646259971647e-08,6.283185307179586e-07,-1.7453292519943295e-08,0.086191259765625,0.8188169677734375,8.90643017578125
47531755000,-5.235987755982989e-08,6.283185307179586e-07,-1.7453292519943295e-08,-0.201112939453125,0.2920926025390625,9.026140258789061
47532750000,-1.7453292519943295e-08,6.108652381980153e-07,-3.490658503988659e-08,0.028730419921875,0.565031591796875,8.8872765625
47533745000,-3.490658503988659e-08,5.93411945678072e-07,-5.235987755982989e-08,0.2154781494140625,0.8283937744140625,8.992621435546875
47534742000,-3.490658503988659e-08,6.108652381980153e-07,-1.7453292519943295e-08,-0.086191259765625,0.36391865234375,9.342174877929686
47535736000,0.0,6.108652381980153e-07,-3.490658503988659e-08,-0.2442085693359375,0.258573779296875,9.586383447265625
47536731000,3.490658503988659e-08,5.93411945678072e-07,-3.490658503988659e-08,0.1388636962890625,0.7422025146484375,9.4618849609375
47537726000,1.7453292519943295e-08,5.759586531581287e-07,-3.490658503988659e-08,0.181959326171875,0.565031591796875,9.236830004882812
47538721000,-1.7453292519943295e-08,5.759586531581287e-07,-1.7453292519943295e-08,-0.239420166015625,0.0430956298828125,9.251195214843749
47539716000,1.7453292519943295e-08,5.759586531581287e-07,-1.7453292519943295e-08,-0.2442085693359375,0.2442085693359375,9.433154541015625
47540712000,5.235987755982989e-08,5.585053606381854e-07,-1.7453292519943295e-08,0.033518823242187495,0.5793968017578125,9.6917283203125
47541707000,1.7453292519943295e-08,5.410520681182422e-07,-1.7453292519943295e-08,-0.277727392578125,0.3016694091796875,10.079588989257813
47542703000,-1.7453292519943295e-08,5.410520681182422e-07,0.0,-0.51714755859375,0.4740519287109375,10.338162768554687
47543696000,-1.7453292519943295e-08,5.235987755982988e-07,0.0,-0.1771709228515625,0.8858546142578124,10.275913525390624
47544691000,0.0,5.061454830783556e-07,0.0,-0.062249243164062495,0.718260498046875,10.012551342773437
47545686000,0.0,5.061454830783556e-07,1.7453292519943295e-08,-0.354341845703125,0.4740519287109375,9.854534033203125
47546681000,-1.7453292519943295e-08,5.061454830783556e-07,1.7453292519943295e-08,-0.3591302490234375,0.7038952880859375,9.964667309570311
47547676000,-3.490658503988659e-08,5.061454830783556e-07,1.7453292519943295e-08,-0.3591302490234375,0.7038952880859375,9.964667309570311
47548671000,-3.490658503988659e-08,4.886921905584122e-07,3.490658503988659e-08,-0.258573779296875,0.679953271484375,10.184933862304687
47549667000,-1.7453292519943295e-08,4.7123889803846896e-07,3.490658503988659e-08,-0.5410895751953124,0.6177040283203125,10.419565624999999
47550662000,0.0,4.7123889803846896e-07,3.490658503988659e-08,-0.7278373046875,0.7900865478515624,10.874463940429687
47551656000,-1.7453292519943295e-08,4.5378560551852565e-07,3.490658503988659e-08,-0.565031591796875,0.8954314208984374,11.195286962890624
47552654000,-3.490658503988659e-08,4.5378560551852565e-07,3.490658503988659e-08,-0.507570751953125,0.7517793212890624,10.946289990234375
47553647000,-1.7453292519943295e-08,4.3633231299858235e-07,1.7453292519943295e-08,-0.6368576416015624,0.622492431640625,10.568006127929687
47554642000,-1.7453292519943295e-08,4.3633231299858235e-07,3.490658503988659e-08,-0.6081272216796875,0.5793968017578125,10.577582934570312
47555636000,-1.7453292519943295e-08,4.188790204786391e-07,3.490658503988659e-08,-0.45489831542968745,0.6081272216796875,10.678139404296875
47556631000,-1.7453292519943295e-08,4.188790204786391e-07,3.490658503988659e-08,-0.5219359619140624,0.5363011718749999,10.568006127929687
47557626000,-1.7453292519943295e-08,4.014257279586958e-07,3.490658503988659e-08,-0.7230489013671875,0.430956298828125,10.754753857421875
47558621000,-1.7453292519943295e-08,4.014257279586958e-07,3.490658503988659e-08,-0.6464344482421874,0.3447650390625,10.869675537109375
47559617000,-1.7453292519943295e-08,3.839724354387525e-07,3.490658503988659e-08,-0.45489831542968745,0.2825157958984375,10.342951171874999
47560615000,-1.7453292519943295e-08,3.839724354387525e-07,1.7453292519943295e-08,-0.411802685546875,0.1388636962890625,9.935936889648437
47561607000,-3.490658503988659e-08,3.839724354387525e-07,1.7453292519943295e-08,-0.45968671875,0.12449848632812499,10.084377392578125
47562604000,-1.7453292519943295e-08,3.665191429188092e-07,1.7453292519943295e-08,-0.354341845703125,0.239420166015625,9.993397729492187
47563597000,0.0,3.665191429188092e-07,1.7453292519943295e-08,-0.38786066894531246,0.229843359375,9.9215716796875
47564592000,-1.7453292519943295e-08,3.490658503988659e-07,1.7453292519943295e-08,-0.5889736083984375,0.3016694091796875,10.280701928710936
47565588000,-3.490658503988659e-08,3.665191429188092e-07,1.7453292519943295e-08,-0.5410895751953124,0.2154781494140625,10.36210478515625
47566583000,-1.7453292519943295e-08,3.665191429188092e-07,3.490658503988659e-08,-0.4213794921875,0.0909796630859375,9.911994873046874
47567580000,-1.7453292519943295e-08,3.490658503988659e-07,1.7453292519943295e-08,-0.411802685546875,0.17238251953125,9.811438403320311
47568573000,-1.7453292519943295e-08,3.490658503988659e-07,1.7453292519943295e-08,-0.411802685546875,0.17238251953125,9.811438403320311
47569568000,-3.490658503988659e-08,3.490658503988659e-07,1.7453292519943295e-08,-0.3495534423828125,0.0909796630859375,9.8449572265625
47570563000,-1.7453292519943295e-08,3.490658503988659e-07,1.7453292519943295e-08,-0.37828386230468747,-0.086191259765625,9.758765966796874
47571558000,-1.7453292519943295e-08,3.665191429188092e-07,1.7453292519943295e-08,-0.3687070556640625,0.076614453125,9.782707983398437
47572553000,-3.490658503988659e-08,3.665191429188092e-07,1.7453292519943295e-08,-0.3687070556640625,0.16280571289062498,10.213664282226562
47573548000,-3.490658503988659e-08,3.490658503988659e-07,1.7453292519943295e-08,-0.5219359619140624,-0.258573779296875,10.304643945312499
47574543000,-5.235987755982989e-08,3.490658503988659e-07,1.7453292519943295e-08,-0.5219359619140624,-0.258573779296875,9.9981861328125
47575538000,-5.235987755982989e-08,3.316125578789226e-07,3.490658503988659e-08,-0.277727392578125,0.09576806640624999,9.911994873046874
47576533000,-3.490658503988659e-08,3.141592653589793e-07,1.7453292519943295e-08,-0.27293898925781246,-0.229843359375,9.94072529296875
47577528000,-3.490658503988659e-08,3.316125578789226e-07,1.7453292519943295e-08,-0.5267243652343749,-0.4644751220703125,9.830592016601562
47578523000,-5.235987755982989e-08,3.316125578789226e-07,1.7453292519943295e-08,-0.3447650390625,0.076614453125,9.883264453125
47579518000,-6.981317007977318e-08,3.141592653589793e-07,1.7453292519943295e-08,-0.15322890625,0.24899697265624998,10.137049829101562
47580513000,-5.235987755982989e-08,2.96705972839036e-07,1.7453292519943295e-08,-0.49320554199218747,-0.26815058593749996,10.079588989257813
47581510000,-3.490658503988659e-08,2.792526803190927e-07,1.7453292519943295e-08,-0.4213794921875,0.023942016601562498,9.935936889648437
47582503000,-3.490658503988659e-08,2.792526803190927e-07,1.7453292519943295e-08,-0.06703764648437499,0.38786066894531246,10.184933862304687
47583498000,-3.490658503988659e-08,2.96705972839036e-07,1.7453292519943295e-08,-0.2442085693359375,-0.047884033203124995,10.228029492187499
47584493000,-5.235987755982989e-08,2.96705972839036e-07,1.7453292519943295e-08,-0.45489831542968745,-0.22026655273437498,9.868899243164062
47585488000,-3.490658503988659e-08,2.792526803190927e-07,1.7453292519943295e-08,-0.1580173095703125,0.2920926025390625,9.840168823242188
47586483000,-1.7453292519943295e-08,2.617993877991494e-07,0.0,-0.11013327636718749,0.3064578125,10.089165795898436
47587477000,-1.7453292519943295e-08,2.617993877991494e-07,1.7453292519943295e-08,-0.49799394531249996,-0.1149216796875,10.079588989257813
47588472000,0.0,2.792526803190927e-07,1.7453292519943295e-08,-0.5267243652343749,-0.0143652099609375,10.05564697265625
47589467000,0.0,2.792526803190927e-07,1.7453292519943295e-08,-0.32082302246093747,0.32561142578124996,10.424354028320312
47590465000,1.7453292519943295e-08,2.792526803190927e-07,1.7453292519943295e-08,-0.4070142822265625,0.033518823242187495,10.366893188476562
47591457000,1.7453292519943295e-08,2.792526803190927e-07,1.7453292519943295e-08,-0.603338818359375,-0.17238251953125,9.935936889648437
47592452000,3.490658503988659e-08,2.443460952792061e-07,0.0,-0.603338818359375,-0.17238251953125,9.935936889648437
47593447000,3.490658503988659e-08,2.443460952792061e-07,0.0,-0.4070142822265625,0.1484405029296875,9.801861596679688
47594442000,6.981317007977318e-08,2.617993877991494e-07,3.490658503988659e-08,-0.27293898925781246,-0.06703764648437499,9.5384994140625
47595437000,8.726646259971647e-08,2.792526803190927e-07,1.7453292519943295e-08,-0.5315127685546874,-0.2825157958984375,9.117119921875
47596433000,8.726646259971647e-08,2.792526803190927e-07,0.0,-0.4740519287109375,0.16759411621093748,9.251195214843749
47597427000,8.726646259971647e-08,2.617993877991494e-07,1.7453292519943295e-08,-0.1197100830078125,0.26336218261718747,9.533711010742186
47598422000,1.0471975511965977e-07,2.443460952792061e-07,1.7453292519943295e-08,-0.239420166015625,-0.24899697265624998,9.375693701171874
47599417000,1.2217304763960305e-07,2.2689280275926283e-07,0.0,-0.47884033203125,-0.33518823242187495,9.179369165039063
47600412000,1.3962634015954636e-07,2.443460952792061e-07,0.0,-0.13407529296874998,0.05746083984375,9.270348828125
47601407000,1.3962634015954636e-07,2.617993877991494e-07,0.0,0.0718260498046875,-0.1388636962890625,9.227253198242186
47602403000,1.2217304763960305e-07,2.617993877991494e-07,0.0,-0.1771709228515625,0.0143652099609375,9.265560424804686
47603398000,1.0471975511965977e-07,2.443460952792061e-07,0.0,0.0047884033203125,0.603338818359375,9.80665
47604393000,1.2217304763960305e-07,2.443460952792061e-07,0.0,0.28730419921875,0.6368576416015624,10.1131078125
47605388000,1.3962634015954636e-07,2.617993877991494e-07,1.7453292519943295e-08,0.1484405029296875,0.373495458984375,9.782707983398437
47606382000,1.2217304763960305e-07,2.443460952792061e-07,0.0,0.1005564697265625,0.3591302490234375,9.423577734375
47607377000,1.2217304763960305e-07,2.443460952792061e-07,0.0,0.38307226562499996,0.32082302246093747,9.337386474609374
47608372000,1.2217304763960305e-07,2.2689280275926283e-07,1.7453292519943295e-08,0.45968671875,-0.0383072265625,9.083601098632812
47609368000,1.2217304763960305e-07,2.0943951023931955e-07,0.0,0.2346317626953125,0.0047884033203125,9.289502441406249
47610363000,1.2217304763960305e-07,1.9198621771937624e-07,-1.7453292519943295e-08,0.0718260498046875,0.06703764648437499,10.103531005859374
47611357000,8.726646259971647e-08,1.9198621771937624e-07,0.0,0.0526724365234375,0.023942016601562498,10.539275708007812
47612352000,1.0471975511965977e-07,1.9198621771937624e-07,0.0,0.0718260498046875,0.1484405029296875,10.505756884765624
47613347000,1.0471975511965977e-07,1.7453292519943294e-07,-1.7453292519943295e-08,-0.12449848632812499,0.08140285644531249,10.505756884765624
47614342000,5.235987755982989e-08,1.5707963267948966e-07,0.0,-0.16280571289062498,-0.0047884033203125,10.443507641601562
47615337000,3.490658503988659e-08,1.5707963267948966e-07,1.7453292519943295e-08,0.19153613281249998,0.028730419921875,9.897629663085937
47616334000,5.235987755982989e-08,1.5707963267948966e-07,1.7453292519943295e-08,0.2059013427734375,0.0430956298828125,9.821015209960937
47617327000,5.235987755982989e-08,1.3962634015954636e-07,1.7453292519943295e-08,0.2059013427734375,0.0430956298828125,9.821015209960937
47618322000,1.7453292519943295e-08,1.3962634015954636e-07,1.7453292519943295e-08,0.028730419921875,0.047884033203124995,10.189722265624999
47619316000,1.7453292519943295e-08,1.3962634015954636e-07,3.490658503988659e-08,0.36391865234375,0.3016694091796875,10.13226142578125
47620311000,1.7453292519943295e-08,1.3962634015954636e-07,3.490658503988659e-08,0.2920926025390625,0.44532150878906246,10.333374365234375
47621306000,0.0,1.2217304763960305e-07,3.490658503988659e-08,-0.22505495605468748,0.24899697265624998,10.82179150390625
47622301000,0.0,1.2217304763960305e-07,3.490658503988659e-08,-0.1580173095703125,0.239420166015625,10.97502041015625
47623296000,0.0,1.5707963267948966e-07,5.235987755982989e-08,0.1005564697265625,0.3399766357421875,10.793061083984375
47624291000,5.235987755982989e-08,1.5707963267948966e-07,5.235987755982989e-08,-0.143652099609375,0.19632453613281248,10.635043774414061
47625287000,5.235987755982989e-08,1.5707963267948966e-07,5.235987755982989e-08,-0.22505495605468748,-0.009576806640625,10.539275708007812
47626280000,1.7453292519943295e-08,1.3962634015954636e-07,5.235987755982989e-08,0.105344873046875,0.19153613281249998,10.414777221679687
47627275000,0.0,1.5707963267948966e-07,5.235987755982989e-08,0.05746083984375,0.32561142578124996,10.371681591796875
47628270000,1.7453292519943295e-08,1.7453292519943294e-07,5.235987755982989e-08,-0.22505495605468748,0.1005564697265625,10.544064111328124
47629265000,3.490658503988659e-08,1.7453292519943294e-07,5.235987755982989e-08,-0.239420166015625,0.2442085693359375,10.850521923828124
